sequence,mouse.x,mouse.y,mouse.leftButton,mouse.midButton,mouse.rightButton,mouse.clicked_name,mouse_2.x,mouse_2.y,mouse_2.leftButton,mouse_2.midButton,mouse_2.rightButton,mouse_2.clicked_name,mouse_12.x,mouse_12.y,mouse_12.leftButton,mouse_12.midButton,mouse_12.rightButton,mouse_12.clicked_name,mouse_3.x,mouse_3.y,mouse_3.leftButton,mouse_3.midButton,mouse_3.rightButton,mouse_3.clicked_name,mouse_11.x,mouse_11.y,mouse_11.leftButton,mouse_11.midButton,mouse_11.rightButton,mouse_11.clicked_name,mouse_8.x,mouse_8.y,mouse_8.leftButton,mouse_8.midButton,mouse_8.rightButton,mouse_8.clicked_name,cross_time[0],mouse_5.x,mouse_5.y,mouse_5.leftButton,mouse_5.midButton,mouse_5.rightButton,similarity,response_time,Pass,trialNumber,mouse_7.x,mouse_7.y,mouse_7.leftButton,mouse_7.midButton,mouse_7.rightButton,prac_trials.thisRepN,prac_trials.thisTrialN,prac_trials.thisN,prac_trials.thisIndex,prac_trials.ran,video_file,video_id,Prolific_ID*,date,expName,psychopyVersion,OS,frameRate,mouse_5.clicked_name,mouse_7.clicked_name,mouse_4.x,mouse_4.y,mouse_4.leftButton,mouse_4.midButton,mouse_4.rightButton,mouse_4.clicked_name,mouse_9.x,mouse_9.y,mouse_9.leftButton,mouse_9.midButton,mouse_9.rightButton,this_video,mouse_6.x,mouse_6.y,mouse_6.leftButton,mouse_6.midButton,mouse_6.rightButton,Experiment.thisRepN,Experiment.thisTrialN,Experiment.thisN,Experiment.thisIndex,Experiment.ran,mouse_9.clicked_name,mouse_6.clicked_name,key_resp.keys,key_resp.rt
"[""group_1/0927.mp4"",""group_1/1292.mp4"",""group_1/2138.mp4"",""group_1/0927.mp4"",""group_1/1768.mp4"",""group_1/1292.mp4"",""group_1/1158.mp4"",""group_1/1375.mp4"",""group_1/1292.mp4"",""group_1/1169.mp4"",""group_1/0927.mp4"",""group_1/0283.mp4"",""group_1/1292.mp4"",""group_1/1703.mp4"",""group_1/0927.mp4"",""group_1/1071.mp4"",""group_1/1292.mp4"",""group_1/1791.mp4"",""group_1/0927.mp4"",""group_1/0059.mp4"",""group_1/2138.mp4"",""group_1/1791.mp4"",""group_1/1768.mp4"",""group_1/1071.mp4"",""group_1/2138.mp4"",""group_1/1703.mp4"",""group_1/1768.mp4"",""group_1/0283.mp4"",""group_1/2138.mp4"",""group_1/1169.mp4"",""group_1/1768.mp4"",""group_1/1375.mp4"",""group_1/2138.mp4"",""group_1/1158.mp4"",""group_1/1768.mp4"",""group_1/0059.mp4"",""group_1/1158.mp4"",""group_1/1791.mp4"",""group_1/1375.mp4"",""group_1/1071.mp4"",""group_1/1158.mp4"",""group_1/1703.mp4"",""group_1/1375.mp4"",""group_1/0283.mp4"",""group_1/1158.mp4"",""group_1/1169.mp4"",""group_1/1375.mp4"",""group_1/0059.mp4"",""group_1/1169.mp4"",""group_1/1791.mp4"",""group_1/0283.mp4"",""group_1/1071.mp4"",""group_1/1169.mp4"",""group_1/1703.mp4"",""group_1/0283.mp4"",""group_1/0059.mp4"",""group_1/1703.mp4"",""group_1/1791.mp4"",""group_1/1071.mp4"",""group_1/0059.mp4"",""group_1/1791.mp4"",""group_1/1071.mp4"",""group_1/1703.mp4"",""group_1/0283.mp4"",""group_1/1169.mp4"",""group_1/1375.mp4"",""group_1/1158.mp4"",""group_1/1768.mp4"",""group_1/2138.mp4"",""group_1/1292.mp4"",""group_1/0059.mp4""]",0.062963019,-0.446296353,1,0,0,image,0.027314843,-0.395833333,1,0,0,image_2,0.069444444,-0.405555556,1,0,0,image,0.011574131,-0.425463019,1,0,0,image,0.020370399,-0.378703732,1,0,0,image,-0.005555556,-0.003703732,1,0,0,center_square_3,0.8,0.015740797,-0.148611111,0,0,0,1,54.0726,1,1,0.015740797,-0.148611111,0,0,0,0,0,0,0,1,videos/0001.mp4,1,Sawayama,2024-07-03_11h17.03.340,demoExp_V2,2021.2.3,Win32,147.0588235,,,,,,,,,,,,,,,,,,,,,,,,,,,,
,,,,,,,,,,,,,,,,,,,,,,,,,,,,,,,,,,,,,1,0.075,0.186111111,1,0,0,4,58.8194,1,2,0.004629686,-0.002777778,1,0,0,0,1,1,1,1,videos/0002.mp4,2,Sawayama,2024-07-03_11h17.03.340,demoExp_V2,2021.2.3,Win32,147.0588235,response1disk,center_square,,,,,,,,,,,,,,,,,,,,,,,,,,
,,,,,,,,,,,,,,,,,,,,,,,,,,,,,,,,,,,,,0.7,0.102314843,0.047685157,1,0,0,3,70.87,1,3,0.008796353,0.004166667,1,0,0,0,2,2,2,1,videos/0003.mp4,3,Sawayama,2024-07-03_11h17.03.340,demoExp_V2,2021.2.3,Win32,147.0588235,response1disk,center_square,,,,,,,,,,,,,,,,,,,,,,,,,,
,,,,,,,,,,,,,,,,,,,,,,,,,,,,,,,,,,,,,0.6,0.051851908,-0.144907422,1,0,0,1,84.1033,1,4,-0.010648092,-0.003703732,1,0,0,0,3,3,3,1,videos/0004.mp4,4,Sawayama,2024-07-03_11h17.03.340,demoExp_V2,2021.2.3,Win32,147.0588235,response3disk,center_square,,,,,,,,,,,,,,,,,,,,,,,,,,
,,,,,,,,,,,,,,,,,,,,,,,,,,,,,,,,,,,,,0.5,-0.094907379,-0.056944444,1,0,0,-2,93.8866,1,5,0.00648151,-0.016203732,1,0,0,0,4,4,4,1,videos/0005.mp4,5,Sawayama,2024-07-03_11h17.03.340,demoExp_V2,2021.2.3,Win32,147.0588235,response5disk,center_square,,,,,,,,,,,,,,,,,,,,,,,,,,
,,,,,,,,,,,,,,,,,,,,,,,,,,,,,,,,,,,,,0.9,-0.099536981,-0.009722222,1,0,0,-2,108.0041,1,6,0.012963019,0,1,0,0,0,5,5,5,1,videos/0006.mp4,6,Sawayama,2024-07-03_11h17.03.340,demoExp_V2,2021.2.3,Win32,147.0588235,response5disk,center_square,,,,,,,,,,,,,,,,,,,,,,,,,,
,,,,,,,,,,,,,,,,,,,,,,,,,,,,,,,0.004629686,-0.010648176,1,0,0,center_square_3,1,,,,,,1,125.889,1,1,,,,,,,,,,,,,Sawayama,2024-07-03_11h17.03.340,demoExp_V2,2021.2.3,Win32,147.0588235,,,0.045370399,-0.381944444,1,0,0,image,0.004629686,-0.010648176,0,0,0,group_1/0927.mp4,0.004629686,-0.010648176,0,0,0,0,0,0,0,1,,,,
,,,,,,,,,,,,,,,,,,,,,,,,,,,,,,,,,,,,,0.5,,,,,,-3,135.7371,1,2,,,,,,,,,,,,,Sawayama,2024-07-03_11h17.03.340,demoExp_V2,2021.2.3,Win32,147.0588235,,,,,,,,,-0.117592536,0.039351824,1,0,0,group_1/1292.mp4,0.007407464,-0.003703732,1,0,0,1,0,1,0,1,response7disk_2,center_square_2,,
,,,,,,,,,,,,,,,,,,,,,,,,,,,,,,,,,,,,,0.5,,,,,,-3,144.3021,1,3,,,,,,,,,,,,,Sawayama,2024-07-03_11h17.03.340,demoExp_V2,2021.2.3,Win32,147.0588235,,,,,,,,,-0.093981425,0.0375,1,0,0,group_1/2138.mp4,0.009259288,-0.010185199,1,0,0,2,0,2,0,1,response7disk_2,center_square_2,,
,,,,,,,,,,,,,,,,,,,,,,,,,,,,,,,,,,,,,1,,,,,,1,152.6199,1,4,,,,,,,,,,,,,Sawayama,2024-07-03_11h17.03.340,demoExp_V2,2021.2.3,Win32,147.0588235,,,,,,,,,0.080092621,-0.135185199,1,0,0,group_1/0927.mp4,0.003240797,-0.002314843,1,0,0,3,0,3,0,1,response3disk_2,center_square_2,,
,,,,,,,,,,,,,,,,,,,,,,,,,,,,,,,,,,,,,1,,,,,,-4,160.0028,1,5,,,,,,,,,,,,,Sawayama,2024-07-03_11h17.03.340,demoExp_V2,2021.2.3,Win32,147.0588235,,,,,,,,,-0.075925869,0.147685178,1,0,0,group_1/1768.mp4,0.007870399,-0.011111111,1,0,0,4,0,4,0,1,response7disk_2,center_square_2,,
,,,,,,,,,,,,,,,,,,,,,,,,,,,,,,,,,,,,,1,,,,,,3,171.3533,1,6,,,,,,,,,,,,,Sawayama,2024-07-03_11h17.03.340,demoExp_V2,2021.2.3,Win32,147.0588235,,,,,,,,,0.075463019,0.052314801,1,0,0,group_1/1292.mp4,0.003240797,-0.002314843,1,0,0,5,0,5,0,1,response1disk_2,center_square_2,,
,,,,,,,,,,,,,,,,,,,,,,,,,,,,,,,,,,,,,0.8,,,,,,-3,179.7747,1,7,,,,,,,,,,,,,Sawayama,2024-07-03_11h17.03.340,demoExp_V2,2021.2.3,Win32,147.0588235,,,,,,,,,-0.093981425,0.038888889,1,0,0,group_1/1158.mp4,-0.011574046,-0.006018533,1,0,0,6,0,6,0,1,response7disk_2,center_square_2,,
,,,,,,,,,,,,,,,,,,,,,,,,,,,,,,,,,,,,,0.8,,,,,,-4,187.6534,1,8,,,,,,,,,,,,,Sawayama,2024-07-03_11h17.03.340,demoExp_V2,2021.2.3,Win32,147.0588235,,,,,,,,,-0.05601849,0.086111111,1,0,0,group_1/1375.mp4,-0.015277778,0.010185157,1,0,0,7,0,7,0,1,response7disk_2,center_square_2,,
,,,,,,,,,,,,,,,,,,,,,,,,,,,,,,,,,,,,,0.8,,,,,,3,198.7745,1,9,,,,,,,,,,,,,Sawayama,2024-07-03_11h17.03.340,demoExp_V2,2021.2.3,Win32,147.0588235,,,,,,,,,0.181944444,0.035648134,1,0,0,group_1/1292.mp4,0.013888889,-0.003240755,1,0,0,8,0,8,0,1,response1disk_2,center_square_2,,
,,,,,,,,,,,,,,,,,,,,,,,,,,,,,,,,,,,,,0.7,,,,,,1,206.3369,1,10,,,,,,,,,,,,,Sawayama,2024-07-03_11h17.03.340,demoExp_V2,2021.2.3,Win32,147.0588235,,,,,,,,,0.037037065,-0.132407422,1,0,0,group_1/1169.mp4,0.000925954,0,1,0,0,9,0,9,0,1,response3disk_2,center_square_2,,
,,,,,,,,,,,,,,,,,,,,,,,,,,,,,,,,,,,,,1,,,,,,-1,214.9689,1,11,,,,,,,,,,,,,Sawayama,2024-07-03_11h17.03.340,demoExp_V2,2021.2.3,Win32,147.0588235,,,,,,,,,-0.063888889,-0.069444444,1,0,0,group_1/0927.mp4,-0.010185157,0.005092578,1,0,0,10,0,10,0,1,response5disk_2,center_square_2,,
,,,,,,,,,,,,,,,,,,,,,,,,,,,,,,,,,,,,,0.9,,,,,,2,233.2367,1,12,,,,,,,,,,,,,Sawayama,2024-07-03_11h17.03.340,demoExp_V2,2021.2.3,Win32,147.0588235,,,,,,,,,0.121296353,-0.063888889,1,0,0,group_1/0283.mp4,0.003703732,-0.006018533,1,0,0,11,0,11,0,1,response3disk_2,center_square_2,,
,,,,,,,,,,,,,,,,,,,,,,,,,,,,,,,,,,,,,0.9,,,,,,-2,245.4201,1,13,,,,,,,,,,,,,Sawayama,2024-07-03_11h17.03.340,demoExp_V2,2021.2.3,Win32,147.0588235,,,,,,,,,-0.155092536,-0.066666667,1,0,0,group_1/1292.mp4,-0.003240712,-0.013888889,1,0,0,12,0,12,0,1,response5disk_2,center_square_2,,
,,,,,,,,,,,,,,,,,,,,,,,,,,,,,,,,,,,,,1,,,,,,3,255.318,1,14,,,,,,,,,,,,,Sawayama,2024-07-03_11h17.03.340,demoExp_V2,2021.2.3,Win32,147.0588235,,,,,,,,,0.199074131,0.078240712,1,0,0,group_1/1703.mp4,-0.003703647,-0.007870399,1,0,0,13,0,13,0,1,response1disk_2,center_square_2,,
,,,,,,,,,,,,,,,,,,,,,,,,,,,,,,,,,,,,,0.9,,,,,,-4,263.237,1,15,,,,,,,,,,,,,Sawayama,2024-07-03_11h17.03.340,demoExp_V2,2021.2.3,Win32,147.0588235,,,,,,,,,-0.144444444,0.160648134,1,0,0,group_1/0927.mp4,0.015740797,-0.010648176,1,0,0,14,0,14,0,1,response7disk_2,center_square_2,,
,,,,,,,,,,,,,,,,,,,,,,,,,,,,,,,,,,,,,0.8,,,,,,1,268.7701,1,16,,,,,,,,,,,,,Sawayama,2024-07-03_11h17.03.340,demoExp_V2,2021.2.3,Win32,147.0588235,,,,,,,,,0.019444444,-0.084259288,1,0,0,group_1/1071.mp4,0.012037065,0.003240712,1,0,0,15,0,15,0,1,response3disk_2,center_square_2,,
,,,,,,,,,,,,,,,,,,,,,,,,,,,,,,,,,,,,,0.9,,,,,,-3,281.5701,1,17,,,,,,,,,,,,,Sawayama,2024-07-03_11h17.03.340,demoExp_V2,2021.2.3,Win32,147.0588235,,,,,,,,,-0.123148092,0.0625,1,0,0,group_1/1292.mp4,0.010185242,-0.007407422,1,0,0,16,0,16,0,1,response7disk_2,center_square_2,,
,,,,,,,,,,,,,,,,,,,,,,,,,,,,,,,,,,,,,1,,,,,,-3,289.969,1,18,,,,,,,,,,,,,Sawayama,2024-07-03_11h17.03.340,demoExp_V2,2021.2.3,Win32,147.0588235,,,,,,,,,-0.087036981,0.024074046,1,0,0,group_1/1791.mp4,0.000463019,0.000925912,1,0,0,17,0,17,0,1,response7disk_2,center_square_2,,
,,,,,,,,,,,,,,,,,,,,,,,,,,,,,,,,,,,,,1,,,,,,3,297.8023,1,19,,,,,,,,,,,,,Sawayama,2024-07-03_11h17.03.340,demoExp_V2,2021.2.3,Win32,147.0588235,,,,,,,,,0.129166667,0.117592578,1,0,0,group_1/0927.mp4,-0.004629601,0.001388889,1,0,0,18,0,18,0,1,response1disk_2,center_square_2,,
,,,,,,,,,,,,,,,,,,,,,,,,,,,,,,,,,,,,,0.6,,,,,,-3,304.0771,1,20,,,,,,,,,,,,,Sawayama,2024-07-03_11h17.03.340,demoExp_V2,2021.2.3,Win32,147.0588235,,,,,,,,,-0.1,0.024074046,1,0,0,group_1/0059.mp4,0.012037065,0.001388889,1,0,0,19,0,19,0,1,response7disk_2,center_square_2,,
,,,,,,,,,,,,,,,,,,,,,,,,,,,,,,,,,,,,,1,,,,,,-3,313.3355,1,21,,,,,,,,,,,,,Sawayama,2024-07-03_11h17.03.340,demoExp_V2,2021.2.3,Win32,147.0588235,,,,,,,,,-0.063888889,0.022685157,1,0,0,group_1/2138.mp4,-0.007870314,0.013425912,1,0,0,20,0,20,0,1,response7disk_2,center_square_2,,
,,,,,,,,,,,,,,,,,,,,,,,,,,,,,,,,,,,,,0.9,,,,,,3,316.976,1,22,,,,,,,,,,,,,Sawayama,2024-07-03_11h17.03.340,demoExp_V2,2021.2.3,Win32,147.0588235,,,,,,,,,0.085648176,0.021296268,1,0,0,group_1/1791.mp4,-0.001851824,-0.009259288,1,0,0,21,0,21,0,1,response1disk_2,center_square_2,,
,,,,,,,,,,,,,,,,,,,,,,,,,,,,,,,,,,,,,0.9,,,,,,-4,325.4354,1,23,,,,,,,,,,,,,Sawayama,2024-07-03_11h17.03.340,demoExp_V2,2021.2.3,Win32,147.0588235,,,,,,,,,-0.113425869,0.199074067,1,0,0,group_1/1768.mp4,-0.015740712,0.009259245,1,0,0,22,0,22,0,1,response7disk_2,center_square_2,,
,,,,,,,,,,,,,,,,,,,,,,,,,,,,,,,,,,,,,0.9,,,,,,-1,334.2437,1,24,,,,,,,,,,,,,Sawayama,2024-07-03_11h17.03.340,demoExp_V2,2021.2.3,Win32,147.0588235,,,,,,,,,-0.026388889,-0.159722222,1,0,0,group_1/1071.mp4,0.014814843,0.009259245,1,0,0,23,0,23,0,1,response5disk_2,center_square_2,,
,,,,,,,,,,,,,,,,,,,,,,,,,,,,,,,,,,,,,0.6,,,,,,1,343.82,1,25,,,,,,,,,,,,,Sawayama,2024-07-03_11h17.03.340,demoExp_V2,2021.2.3,Win32,147.0588235,,,,,,,,,0.064814843,-0.177314843,1,0,0,group_1/2138.mp4,-0.007407379,-0.008333333,1,0,0,24,0,24,0,1,response3disk_2,center_square_2,,
,,,,,,,,,,,,,,,,,,,,,,,,,,,,,,,,,,,,,0.9,,,,,,-3,352.6867,1,26,,,,,,,,,,,,,Sawayama,2024-07-03_11h17.03.340,demoExp_V2,2021.2.3,Win32,147.0588235,,,,,,,,,-0.1625,0.03101849,1,0,0,group_1/1703.mp4,0.000925954,0.005092578,1,0,0,25,0,25,0,1,response7disk_2,center_square_2,,
,,,,,,,,,,,,,,,,,,,,,,,,,,,,,,,,,,,,,0.5,,,,,,4,360.4052,1,27,,,,,,,,,,,,,Sawayama,2024-07-03_11h17.03.340,demoExp_V2,2021.2.3,Win32,147.0588235,,,,,,,,,0.020833333,0.140740712,1,0,0,group_1/1768.mp4,0.005092621,-0.001388889,1,0,0,26,0,26,0,1,response1disk_2,center_square_2,,
,,,,,,,,,,,,,,,,,,,,,,,,,,,,,,,,,,,,,0.7,,,,,,1,378.1702,1,28,,,,,,,,,,,,,Sawayama,2024-07-03_11h17.03.340,demoExp_V2,2021.2.3,Win32,147.0588235,,,,,,,,,0.069444444,-0.173148176,1,0,0,group_1/0283.mp4,0.00648151,-0.016203732,1,0,0,27,0,27,0,1,response3disk_2,center_square_2,,
,,,,,,,,,,,,,,,,,,,,,,,,,,,,,,,,,,,,,0.8,,,,,,1,389.5534,1,29,,,,,,,,,,,,,Sawayama,2024-07-03_11h17.03.340,demoExp_V2,2021.2.3,Win32,147.0588235,,,,,,,,,0.058333333,-0.13379631,1,0,0,group_1/2138.mp4,0.002777778,0,1,0,0,28,0,28,0,1,response3disk_2,center_square_2,,
,,,,,,,,,,,,,,,,,,,,,,,,,,,,,,,,,,,,,0.6,,,,,,-2,395.2367,1,30,,,,,,,,,,,,,Sawayama,2024-07-03_11h17.03.340,demoExp_V2,2021.2.3,Win32,147.0588235,,,,,,,,,-0.086574046,-0.062962977,1,0,0,group_1/1169.mp4,0.0125,-0.013888889,1,0,0,29,0,29,0,1,response5disk_2,center_square_2,,
,,,,,,,,,,,,,,,,,,,,,,,,,,,,,,,,,,,,,1,,,,,,2,403.17,1,31,,,,,,,,,,,,,Sawayama,2024-07-03_11h17.03.340,demoExp_V2,2021.2.3,Win32,147.0588235,,,,,,,,,0.193055556,-0.13148151,1,0,0,group_1/1768.mp4,0.015740797,0,1,0,0,30,0,30,0,1,response3disk_2,center_square_2,,
,,,,,,,,,,,,,,,,,,,,,,,,,,,,,,,,,,,,,0.9,,,,,,2,415.2867,1,32,,,,,,,,,,,,,Sawayama,2024-07-03_11h17.03.340,demoExp_V2,2021.2.3,Win32,147.0588235,,,,,,,,,0.122222222,-0.074074088,1,0,0,group_1/1375.mp4,0.006018575,-0.007870399,1,0,0,31,0,31,0,1,response3disk_2,center_square_2,,
,,,,,,,,,,,,,,,,,,,,,,,,,,,,,,,,,,,,,0.9,,,,,,-2,424.67,1,33,,,,,,,,,,,,,Sawayama,2024-07-03_11h17.03.340,demoExp_V2,2021.2.3,Win32,147.0588235,,,,,,,,,-0.112962935,-0.018055556,1,0,0,group_1/2138.mp4,-0.012036981,-0.003240755,1,0,0,32,0,32,0,1,response5disk_2,center_square_2,,
,,,,,,,,,,,,,,,,,,,,,,,,,,,,,,,,,,,,,0.9,,,,,,3,433.2524,1,34,,,,,,,,,,,,,Sawayama,2024-07-03_11h17.03.340,demoExp_V2,2021.2.3,Win32,147.0588235,,,,,,,,,0.075463019,0.014351824,1,0,0,group_1/1158.mp4,0.003703732,-0.002777778,1,0,0,33,0,33,0,1,response1disk_2,center_square_2,,
,,,,,,,,,,,,,,,,,,,,,,,,,,,,,,,,,,,,,0.9,,,,,,-4,441.1537,1,35,,,,,,,,,,,,,Sawayama,2024-07-03_11h17.03.340,demoExp_V2,2021.2.3,Win32,147.0588235,,,,,,,,,-0.062036981,0.116666667,1,0,0,group_1/1768.mp4,-0.011574046,0.000925912,1,0,0,34,0,34,0,1,response7disk_2,center_square_2,,
,,,,,,,,,,,,,,,,,,,,,,,,,,,,,,,,,,,,,0.9,,,,,,2,447.0204,1,36,,,,,,,,,,,,,Sawayama,2024-07-03_11h17.03.340,demoExp_V2,2021.2.3,Win32,147.0588235,,,,,,,,,0.148148176,-0.129166667,1,0,0,group_1/0059.mp4,-0.00601849,0.005092578,1,0,0,35,0,35,0,1,response3disk_2,center_square_2,,
,,,,,,,,,,,,,,,,,,,,,,,,,,,,,,,,,,,,,1,,,,,,-2,456.0858,1,37,,,,,,,,,,,,,Sawayama,2024-07-03_11h17.03.340,demoExp_V2,2021.2.3,Win32,147.0588235,,,,,,,,,-0.055092536,-0.020370399,1,0,0,group_1/1158.mp4,0.001388889,0.005092578,1,0,0,36,0,36,0,1,response5disk_2,center_square_2,,
,,,,,,,,,,,,,,,,,,,,,,,,,,,,,,,,,,,,,0.8,,,,,,3,459.5692,1,38,,,,,,,,,,,,,Sawayama,2024-07-03_11h17.03.340,demoExp_V2,2021.2.3,Win32,147.0588235,,,,,,,,,0.092592621,0.032407379,1,0,0,group_1/1791.mp4,0.001388889,0.011111111,1,0,0,37,0,37,0,1,response1disk_2,center_square_2,,
,,,,,,,,,,,,,,,,,,,,,,,,,,,,,,,,,,,,,0.9,,,,,,-3,464.3868,1,39,,,,,,,,,,,,,Sawayama,2024-07-03_11h17.03.340,demoExp_V2,2021.2.3,Win32,147.0588235,,,,,,,,,-0.118055556,0.018055556,1,0,0,group_1/1375.mp4,-0.005092536,0.002777778,1,0,0,38,0,38,0,1,response7disk_2,center_square_2,,
,,,,,,,,,,,,,,,,,,,,,,,,,,,,,,,,,,,,,0.6,,,,,,1,469.237,1,40,,,,,,,,,,,,,Sawayama,2024-07-03_11h17.03.340,demoExp_V2,2021.2.3,Win32,147.0588235,,,,,,,,,0.027314843,-0.1125,1,0,0,group_1/1071.mp4,-0.002314758,0,1,0,0,39,0,39,0,1,response3disk_2,center_square_2,,
,,,,,,,,,,,,,,,,,,,,,,,,,,,,,,,,,,,,,0.6,,,,,,2,477.6357,1,41,,,,,,,,,,,,,Sawayama,2024-07-03_11h17.03.340,demoExp_V2,2021.2.3,Win32,147.0588235,,,,,,,,,0.129166667,-0.076851866,1,0,0,group_1/1158.mp4,-0.0125,-0.002777778,1,0,0,40,0,40,0,1,response3disk_2,center_square_2,,
,,,,,,,,,,,,,,,,,,,,,,,,,,,,,,,,,,,,,0.8,,,,,,-4,486.5868,1,42,,,,,,,,,,,,,Sawayama,2024-07-03_11h17.03.340,demoExp_V2,2021.2.3,Win32,147.0588235,,,,,,,,,-0.058333333,0.161111111,1,0,0,group_1/1703.mp4,0.001388889,-0.005092621,1,0,0,41,0,41,0,1,response7disk_2,center_square_2,,
,,,,,,,,,,,,,,,,,,,,,,,,,,,,,,,,,,,,,0.5,,,,,,-2,491.3867,1,43,,,,,,,,,,,,,Sawayama,2024-07-03_11h17.03.340,demoExp_V2,2021.2.3,Win32,147.0588235,,,,,,,,,-0.130555556,-0.028703732,1,0,0,group_1/1375.mp4,0.004166667,-0.0125,1,0,0,42,0,42,0,1,response5disk_2,center_square_2,,
,,,,,,,,,,,,,,,,,,,,,,,,,,,,,,,,,,,,,0.6,,,,,,1,509.8689,1,44,,,,,,,,,,,,,Sawayama,2024-07-03_11h17.03.340,demoExp_V2,2021.2.3,Win32,147.0588235,,,,,,,,,0.104629686,-0.174074088,1,0,0,group_1/0283.mp4,-0.001851824,0.000462935,1,0,0,43,0,43,0,1,response3disk_2,center_square_2,,
,,,,,,,,,,,,,,,,,,,,,,,,,,,,,,,,,,,,,0.8,,,,,,-2,519.819,1,45,,,,,,,,,,,,,Sawayama,2024-07-03_11h17.03.340,demoExp_V2,2021.2.3,Win32,147.0588235,,,,,,,,,-0.161574046,-0.050925954,1,0,0,group_1/1158.mp4,0.00648151,-0.008333333,1,0,0,44,0,44,0,1,response5disk_2,center_square_2,,
,,,,,,,,,,,,,,,,,,,,,,,,,,,,,,,,,,,,,1,,,,,,-1,525.0368,1,46,,,,,,,,,,,,,Sawayama,2024-07-03_11h17.03.340,demoExp_V2,2021.2.3,Win32,147.0588235,,,,,,,,,-0.076388889,-0.121759288,1,0,0,group_1/1169.mp4,0.005092621,-0.007407422,1,0,0,45,0,45,0,1,response5disk_2,center_square_2,,
,,,,,,,,,,,,,,,,,,,,,,,,,,,,,,,,,,,,,0.9,,,,,,-2,530.6202,1,47,,,,,,,,,,,,,Sawayama,2024-07-03_11h17.03.340,demoExp_V2,2021.2.3,Win32,147.0588235,,,,,,,,,-0.075,-0.033333333,1,0,0,group_1/1375.mp4,-0.003240712,-0.000462977,1,0,0,46,0,46,0,1,response5disk_2,center_square_2,,
,,,,,,,,,,,,,,,,,,,,,,,,,,,,,,,,,,,,,0.9,,,,,,2,536.6535,1,48,,,,,,,,,,,,,Sawayama,2024-07-03_11h17.03.340,demoExp_V2,2021.2.3,Win32,147.0588235,,,,,,,,,0.075463019,-0.039351866,1,0,0,group_1/0059.mp4,-0.010185157,0.002314801,1,0,0,47,0,47,0,1,response3disk_2,center_square_2,,
,,,,,,,,,,,,,,,,,,,,,,,,,,,,,,,,,,,,,0.5,,,,,,-2,541.4413,1,49,,,,,,,,,,,,,Sawayama,2024-07-03_11h17.03.340,demoExp_V2,2021.2.3,Win32,147.0588235,,,,,,,,,-0.148611111,-0.0375,1,0,0,group_1/1169.mp4,0.0125,-0.011111111,1,0,0,48,0,48,0,1,response5disk_2,center_square_2,,
,,,,,,,,,,,,,,,,,,,,,,,,,,,,,,,,,,,,,0.6,,,,,,-3,545.9867,1,50,,,,,,,,,,,,,Sawayama,2024-07-03_11h17.03.340,demoExp_V2,2021.2.3,Win32,147.0588235,,,,,,,,,-0.142129601,0.010648134,1,0,0,group_1/1791.mp4,-0.008796268,-0.007407422,1,0,0,49,0,49,0,1,response7disk_2,center_square_2,,
,,,,,,,,,,,,,,,,,,,,,,,,,,,,,,,,,,,,,0.8,,,,,,-3,563.9225,1,51,,,,,,,,,,,,,Sawayama,2024-07-03_11h17.03.340,demoExp_V2,2021.2.3,Win32,147.0588235,,,,,,,,,-0.138888889,0.037962935,1,0,0,group_1/0283.mp4,-0.003240712,-0.001851866,1,0,0,50,0,50,0,1,response7disk_2,center_square_2,,
,,,,,,,,,,,,,,,,,,,,,,,,,,,,,,,,,,,,,0.8,,,,,,1,569.1438,1,52,,,,,,,,,,,,,Sawayama,2024-07-03_11h17.03.340,demoExp_V2,2021.2.3,Win32,147.0588235,,,,,,,,,0.008796353,-0.085648176,1,0,0,group_1/1071.mp4,-0.007870314,-0.009259288,1,0,0,51,0,51,0,1,response3disk_2,center_square_2,,
,,,,,,,,,,,,,,,,,,,,,,,,,,,,,,,,,,,,,1,,,,,,-3,574.7038,1,53,,,,,,,,,,,,,Sawayama,2024-07-03_11h17.03.340,demoExp_V2,2021.2.3,Win32,147.0588235,,,,,,,,,-0.17870369,0.057407379,1,0,0,group_1/1169.mp4,-0.007407379,0.003240712,1,0,0,52,0,52,0,1,response7disk_2,center_square_2,,
,,,,,,,,,,,,,,,,,,,,,,,,,,,,,,,,,,,,,0.5,,,,,,2,584.0027,1,54,,,,,,,,,,,,,Sawayama,2024-07-03_11h17.03.340,demoExp_V2,2021.2.3,Win32,147.0588235,,,,,,,,,0.136111111,-0.028240755,1,0,0,group_1/1703.mp4,0.007870399,0.000925912,1,0,0,53,0,53,0,1,response3disk_2,center_square_2,,
,,,,,,,,,,,,,,,,,,,,,,,,,,,,,,,,,,,,,0.9,,,,,,-2,602.1203,1,55,,,,,,,,,,,,,Sawayama,2024-07-03_11h17.03.340,demoExp_V2,2021.2.3,Win32,147.0588235,,,,,,,,,-0.067129601,-0.025,1,0,0,group_1/0283.mp4,0.014814843,-0.002777778,1,0,0,54,0,54,0,1,response5disk_2,center_square_2,,
,,,,,,,,,,,,,,,,,,,,,,,,,,,,,,,,,,,,,0.8,,,,,,1,607.487,1,56,,,,,,,,,,,,,Sawayama,2024-07-03_11h17.03.340,demoExp_V2,2021.2.3,Win32,147.0588235,,,,,,,,,0.042592621,-0.106018533,1,0,0,group_1/0059.mp4,0.0125,-0.010185199,1,0,0,55,0,55,0,1,response3disk_2,center_square_2,,
,,,,,,,,,,,,,,,,,,,,,,,,,,,,,,,,,,,,,1,,,,,,2,616.4024,1,57,,,,,,,,,,,,,Sawayama,2024-07-03_11h17.03.340,demoExp_V2,2021.2.3,Win32,147.0588235,,,,,,,,,0.103703732,-0.03379631,1,0,0,group_1/1703.mp4,0.001388889,-0.004629644,1,0,0,56,0,56,0,1,response3disk_2,center_square_2,,
,,,,,,,,,,,,,,,,,,,,,,,,,,,,,,,,,,,,,0.7,,,,,,-3,619.675,1,58,,,,,,,,,,,,,Sawayama,2024-07-03_11h17.03.340,demoExp_V2,2021.2.3,Win32,147.0588235,,,,,,,,,-0.114814758,0.040740712,1,0,0,group_1/1791.mp4,0.012963019,-0.004166667,1,0,0,57,0,57,0,1,response7disk_2,center_square_2,,
,,,,,,,,,,,,,,,,,,,,,,,,,,,,,,,,,,,,,1,,,,,,1,625.0201,1,59,,,,,,,,,,,,,Sawayama,2024-07-03_11h17.03.340,demoExp_V2,2021.2.3,Win32,147.0588235,,,,,,,,,0.032870399,-0.134259288,1,0,0,group_1/1071.mp4,-0.00601849,0.00601849,1,0,0,58,0,58,0,1,response3disk_2,center_square_2,,
,,,,,,,,,,,,,,,,,,,,,,,,,,,,,,,,,,,,,0.7,,,,,,-2,630.7529,1,60,,,,,,,,,,,,,Sawayama,2024-07-03_11h17.03.340,demoExp_V2,2021.2.3,Win32,147.0588235,,,,,,,,,-0.123611111,-0.025462977,1,0,0,group_1/0059.mp4,-0.00601849,-0.004166667,1,0,0,59,0,59,0,1,response5disk_2,center_square_2,,
,,,,,,,,,,,,,,,,,,,,,,,,,,,,,,,,,,,,,0.6,,,,,,-3,634.192,1,61,,,,,,,,,,,,,Sawayama,2024-07-03_11h17.03.340,demoExp_V2,2021.2.3,Win32,147.0588235,,,,,,,,,-0.082407379,0.030092578,1,0,0,group_1/1791.mp4,-0.004166667,-0.004166667,1,0,0,60,0,60,0,1,response7disk_2,center_square_2,,
,,,,,,,,,,,,,,,,,,,,,,,,,,,,,,,,,,,,,0.7,,,,,,1,638.3412,1,62,,,,,,,,,,,,,Sawayama,2024-07-03_11h17.03.340,demoExp_V2,2021.2.3,Win32,147.0588235,,,,,,,,,0.043055556,-0.184259288,1,0,0,group_1/1071.mp4,0.001851908,0.00601849,1,0,0,61,0,61,0,1,response3disk_2,center_square_2,,
,,,,,,,,,,,,,,,,,,,,,,,,,,,,,,,,,,,,,0.8,,,,,,-4,646.9528,1,63,,,,,,,,,,,,,Sawayama,2024-07-03_11h17.03.340,demoExp_V2,2021.2.3,Win32,147.0588235,,,,,,,,,-0.064351824,0.137037023,1,0,0,group_1/1703.mp4,-0.005092536,0.008333333,1,0,0,62,0,62,0,1,response7disk_2,center_square_2,,
,,,,,,,,,,,,,,,,,,,,,,,,,,,,,,,,,,,,,0.8,,,,,,-3,664.7858,1,64,,,,,,,,,,,,,Sawayama,2024-07-03_11h17.03.340,demoExp_V2,2021.2.3,Win32,147.0588235,,,,,,,,,-0.136574046,0.032870356,1,0,0,group_1/0283.mp4,-0.010185157,-0.001851866,1,0,0,63,0,63,0,1,response7disk_2,center_square_2,,
,,,,,,,,,,,,,,,,,,,,,,,,,,,,,,,,,,,,,1,,,,,,-1,670.4357,1,65,,,,,,,,,,,,,Sawayama,2024-07-03_11h17.03.340,demoExp_V2,2021.2.3,Win32,147.0588235,,,,,,,,,-0.039351824,-0.118518533,1,0,0,group_1/1169.mp4,-0.012036981,-0.004166667,1,0,0,64,0,64,0,1,response5disk_2,center_square_2,,
,,,,,,,,,,,,,,,,,,,,,,,,,,,,,,,,,,,,,0.6,,,,,,-2,675.1046,1,66,,,,,,,,,,,,,Sawayama,2024-07-03_11h17.03.340,demoExp_V2,2021.2.3,Win32,147.0588235,,,,,,,,,-0.099536981,-0.056018533,1,0,0,group_1/1375.mp4,-0.007407379,-0.000925954,1,0,0,65,0,65,0,1,response5disk_2,center_square_2,,
,,,,,,,,,,,,,,,,,,,,,,,,,,,,,,,,,,,,,0.9,,,,,,-3,683.5536,1,67,,,,,,,,,,,,,Sawayama,2024-07-03_11h17.03.340,demoExp_V2,2021.2.3,Win32,147.0588235,,,,,,,,,-0.084722222,0.030092578,1,0,0,group_1/1158.mp4,-0.000925869,0.011111111,1,0,0,66,0,66,0,1,response7disk_2,center_square_2,,
,,,,,,,,,,,,,,,,,,,,,,,,,,,,,,,,,,,,,1,,,,,,-4,690.9697,1,68,,,,,,,,,,,,,Sawayama,2024-07-03_11h17.03.340,demoExp_V2,2021.2.3,Win32,147.0588235,,,,,,,,,-0.050462935,0.078240712,1,0,0,group_1/1768.mp4,-0.002777778,0.000462935,1,0,0,67,0,67,0,1,response7disk_2,center_square_2,,
,,,,,,,,,,,,,,,,,,,,,,,,,,,,,,,,,,,,,0.7,,,,,,-4,699.6027,1,69,,,,,,,,,,,,,Sawayama,2024-07-03_11h17.03.340,demoExp_V2,2021.2.3,Win32,147.0588235,,,,,,,,,-0.028240712,0.130555556,1,0,0,group_1/2138.mp4,0.005555556,0.000925912,1,0,0,68,0,68,0,1,response7disk_2,center_square_2,,
,,,,,,,,,,,,,,,,,,,,,,,,,,,,,,,,,,,,,0.8,,,,,,-3,710.1203,1,70,,,,,,,,,,,,,Sawayama,2024-07-03_11h17.03.340,demoExp_V2,2021.2.3,Win32,147.0588235,,,,,,,,,-0.121759203,0.03101849,1,0,0,group_1/1292.mp4,-0.006944444,-0.000462977,1,0,0,69,0,69,0,1,response7disk_2,center_square_2,,
,,,,,,,,,,,,,,,,,,,,,,,,,,,,,,,,,,,,,0.6,,,,,,1,717.4997,1,71,,,,,,,,,,,,,Sawayama,2024-07-03_11h17.03.340,demoExp_V2,2021.2.3,Win32,147.0588235,,,,,,,,,0.016666667,-0.127777778,1,0,0,group_1/0059.mp4,0.000925954,0.000462935,1,0,0,70,0,70,0,1,response3disk_2,center_square_2,,
,,,,,,,,,,,,,,,,,,,,,,,,,,,,,,,,,,,,,,,,,,,,,,,,,,,,,,,,,,,Sawayama,2024-07-03_11h17.03.340,demoExp_V2,2021.2.3,Win32,147.0588235,,,,,,,,,,,,,,,,,,,,,,,,,,,space,3.4686
