sequence,mouse.x,mouse.y,mouse.leftButton,mouse.midButton,mouse.rightButton,mouse.clicked_name,mouse_2.x,mouse_2.y,mouse_2.leftButton,mouse_2.midButton,mouse_2.rightButton,mouse_2.clicked_name,mouse_12.x,mouse_12.y,mouse_12.leftButton,mouse_12.midButton,mouse_12.rightButton,mouse_12.clicked_name,mouse_3.x,mouse_3.y,mouse_3.leftButton,mouse_3.midButton,mouse_3.rightButton,mouse_3.clicked_name,mouse_11.x,mouse_11.y,mouse_11.leftButton,mouse_11.midButton,mouse_11.rightButton,mouse_11.clicked_name,mouse_8.x,mouse_8.y,mouse_8.leftButton,mouse_8.midButton,mouse_8.rightButton,mouse_8.clicked_name,cross_time[0],mouse_5.x,mouse_5.y,mouse_5.leftButton,mouse_5.midButton,mouse_5.rightButton,similarity,response_time,Pass,trialNumber,mouse_7.x,mouse_7.y,mouse_7.leftButton,mouse_7.midButton,mouse_7.rightButton,prac_trials.thisRepN,prac_trials.thisTrialN,prac_trials.thisN,prac_trials.thisIndex,prac_trials.ran,video_file,video_id,Prolific_ID*,date,expName,psychopyVersion,OS,frameRate,mouse_5.clicked_name,mouse_7.clicked_name,mouse_4.x,mouse_4.y,mouse_4.leftButton,mouse_4.midButton,mouse_4.rightButton,mouse_4.clicked_name,mouse_9.x,mouse_9.y,mouse_9.leftButton,mouse_9.midButton,mouse_9.rightButton,this_video,mouse_6.x,mouse_6.y,mouse_6.leftButton,mouse_6.midButton,mouse_6.rightButton,Experiment.thisRepN,Experiment.thisTrialN,Experiment.thisN,Experiment.thisIndex,Experiment.ran,mouse_9.clicked_name,mouse_6.clicked_name,key_resp.keys,key_resp.rt
"[""group_1/1768.mp4"",""group_1/1169.mp4"",""group_1/0283.mp4"",""group_1/1768.mp4"",""group_1/0059.mp4"",""group_1/1169.mp4"",""group_1/2138.mp4"",""group_1/1292.mp4"",""group_1/1169.mp4"",""group_1/1791.mp4"",""group_1/1768.mp4"",""group_1/1158.mp4"",""group_1/1169.mp4"",""group_1/1071.mp4"",""group_1/1768.mp4"",""group_1/0927.mp4"",""group_1/1169.mp4"",""group_1/1703.mp4"",""group_1/1768.mp4"",""group_1/1375.mp4"",""group_1/0283.mp4"",""group_1/1703.mp4"",""group_1/0059.mp4"",""group_1/0927.mp4"",""group_1/0283.mp4"",""group_1/1071.mp4"",""group_1/0059.mp4"",""group_1/1158.mp4"",""group_1/0283.mp4"",""group_1/1791.mp4"",""group_1/0059.mp4"",""group_1/1292.mp4"",""group_1/0283.mp4"",""group_1/2138.mp4"",""group_1/0059.mp4"",""group_1/1375.mp4"",""group_1/2138.mp4"",""group_1/1703.mp4"",""group_1/1292.mp4"",""group_1/0927.mp4"",""group_1/2138.mp4"",""group_1/1071.mp4"",""group_1/1292.mp4"",""group_1/1158.mp4"",""group_1/2138.mp4"",""group_1/1791.mp4"",""group_1/1292.mp4"",""group_1/1375.mp4"",""group_1/1791.mp4"",""group_1/1703.mp4"",""group_1/1158.mp4"",""group_1/0927.mp4"",""group_1/1791.mp4"",""group_1/1071.mp4"",""group_1/1158.mp4"",""group_1/1375.mp4"",""group_1/1071.mp4"",""group_1/1703.mp4"",""group_1/0927.mp4"",""group_1/1375.mp4"",""group_1/1703.mp4"",""group_1/0927.mp4"",""group_1/1071.mp4"",""group_1/1158.mp4"",""group_1/1791.mp4"",""group_1/1292.mp4"",""group_1/2138.mp4"",""group_1/0059.mp4"",""group_1/0283.mp4"",""group_1/1169.mp4"",""group_1/1375.mp4""]",0.05625,-0.426875,1,0,0,image,0.013125,-0.391875,1,0,0,image_2,0.00625,-0.370625,1,0,0,image,-0.008125,-0.400625,1,0,0,image,0.0025,-0.39875,1,0,0,image,-0.003125,0.003125,1,0,0,center_square_3,0.8,-0.003125,0.003125,0,0,0,-3,57.1944,1,1,-0.003125,0.003125,0,0,0,0,0,0,0,1,videos/0001.mp4,1,ayu,2024-07-01_16h58.33.404,demoExp_V2,2021.2.3,Win32,59.88023952,,,,,,,,,,,,,,,,,,,,,,,,,,,,
,,,,,,,,,,,,,,,,,,,,,,,,,,,,,,,,,,,,,0.7,0.08375,0.11,1,0,0,4,64.3329,1,2,0,0.003125,1,0,0,0,1,1,1,1,videos/0002.mp4,2,ayu,2024-07-01_16h58.33.404,demoExp_V2,2021.2.3,Win32,59.88023952,response1disk,center_square,,,,,,,,,,,,,,,,,,,,,,,,,,
,,,,,,,,,,,,,,,,,,,,,,,,,,,,,,,,,,,,,0.5,-0.084375,0.1125,1,0,0,-4,77.4002,1,3,-0.0075,0.011875,1,0,0,0,2,2,2,1,videos/0003.mp4,3,ayu,2024-07-01_16h58.33.404,demoExp_V2,2021.2.3,Win32,59.88023952,response7disk,center_square,,,,,,,,,,,,,,,,,,,,,,,,,,
,,,,,,,,,,,,,,,,,,,,,,,,,,,,,,,,,,,,,1,-0.1325,0.039375,1,0,0,-3,88.6682,1,4,-0.010625,0,1,0,0,0,3,3,3,1,videos/0004.mp4,4,ayu,2024-07-01_16h58.33.404,demoExp_V2,2021.2.3,Win32,59.88023952,response7disk,center_square,,,,,,,,,,,,,,,,,,,,,,,,,,
,,,,,,,,,,,,,,,,,,,,,,,,,,,,,,,,,,,,,0.6,-0.121875,-0.048125,1,0,0,-2,98.4527,1,5,0.00375,0.005625,1,0,0,0,4,4,4,1,videos/0005.mp4,5,ayu,2024-07-01_16h58.33.404,demoExp_V2,2021.2.3,Win32,59.88023952,response5disk,center_square,,,,,,,,,,,,,,,,,,,,,,,,,,
,,,,,,,,,,,,,,,,,,,,,,,,,,,,,,,,,,,,,0.9,-0.11875,0.039375,1,0,0,-3,112.3039,1,6,0,0,1,0,0,0,5,5,5,1,videos/0006.mp4,6,ayu,2024-07-01_16h58.33.404,demoExp_V2,2021.2.3,Win32,59.88023952,response7disk,center_square,,,,,,,,,,,,,,,,,,,,,,,,,,
,,,,,,,,,,,,,,,,,,,,,,,,,,,,,,,0.004375,-0.010625,1,0,0,center_square_3,1,,,,,,1,128.217,1,1,,,,,,,,,,,,,ayu,2024-07-01_16h58.33.404,demoExp_V2,2021.2.3,Win32,59.88023952,,,-0.005625,-0.34625,1,0,0,image,0.01125,-0.035,0,0,0,group_1/1768.mp4,0.01125,-0.035,0,0,0,0,0,0,0,1,,,,
,,,,,,,,,,,,,,,,,,,,,,,,,,,,,,,,,,,,,1,,,,,,1,137.0567,1,2,,,,,,,,,,,,,ayu,2024-07-01_16h58.33.404,demoExp_V2,2021.2.3,Win32,59.88023952,,,,,,,,,0.0075,-0.1125,1,0,0,group_1/1169.mp4,-0.005625,-0.014375,1,0,0,1,0,1,0,1,response3disk_2,center_square_2,,
,,,,,,,,,,,,,,,,,,,,,,,,,,,,,,,,,,,,,1,,,,,,-3,155.8915,1,3,,,,,,,,,,,,,ayu,2024-07-01_16h58.33.404,demoExp_V2,2021.2.3,Win32,59.88023952,,,,,,,,,-0.099375,0.01375,1,0,0,group_1/0283.mp4,-0.006875,-0.00125,1,0,0,2,0,2,0,1,response7disk_2,center_square_2,,
,,,,,,,,,,,,,,,,,,,,,,,,,,,,,,,,,,,,,0.6,,,,,,2,163.0423,1,4,,,,,,,,,,,,,ayu,2024-07-01_16h58.33.404,demoExp_V2,2021.2.3,Win32,59.88023952,,,,,,,,,0.1475,-0.0525,1,0,0,group_1/1768.mp4,0.001875,-0.000625,1,0,0,3,0,3,0,1,response3disk_2,center_square_2,,
,,,,,,,,,,,,,,,,,,,,,,,,,,,,,,,,,,,,,0.6,,,,,,1,167.71,1,5,,,,,,,,,,,,,ayu,2024-07-01_16h58.33.404,demoExp_V2,2021.2.3,Win32,59.88023952,,,,,,,,,0.035,-0.08625,1,0,0,group_1/0059.mp4,0.00125,0.000625,1,0,0,4,0,4,0,1,response3disk_2,center_square_2,,
,,,,,,,,,,,,,,,,,,,,,,,,,,,,,,,,,,,,,1,,,,,,1,172.6101,1,6,,,,,,,,,,,,,ayu,2024-07-01_16h58.33.404,demoExp_V2,2021.2.3,Win32,59.88023952,,,,,,,,,0.04,-0.071875,1,0,0,group_1/1169.mp4,0.0075,-0.0075,1,0,0,5,0,5,0,1,response3disk_2,center_square_2,,
,,,,,,,,,,,,,,,,,,,,,,,,,,,,,,,,,,,,,0.8,,,,,,-4,181.1113,1,7,,,,,,,,,,,,,ayu,2024-07-01_16h58.33.404,demoExp_V2,2021.2.3,Win32,59.88023952,,,,,,,,,-0.05125,0.078125,1,0,0,group_1/2138.mp4,0.00625,-0.010625,1,0,0,6,0,6,0,1,response7disk_2,center_square_2,,
,,,,,,,,,,,,,,,,,,,,,,,,,,,,,,,,,,,,,0.6,,,,,,2,191.8789,1,8,,,,,,,,,,,,,ayu,2024-07-01_16h58.33.404,demoExp_V2,2021.2.3,Win32,59.88023952,,,,,,,,,0.098125,-0.049375,1,0,0,group_1/1292.mp4,0.00375,-0.003125,1,0,0,7,0,7,0,1,response3disk_2,center_square_2,,
,,,,,,,,,,,,,,,,,,,,,,,,,,,,,,,,,,,,,0.7,,,,,,-4,197.046,1,9,,,,,,,,,,,,,ayu,2024-07-01_16h58.33.404,demoExp_V2,2021.2.3,Win32,59.88023952,,,,,,,,,-0.0325,0.071875,1,0,0,group_1/1169.mp4,-0.0025,0.0025,1,0,0,8,0,8,0,1,response7disk_2,center_square_2,,
,,,,,,,,,,,,,,,,,,,,,,,,,,,,,,,,,,,,,0.7,,,,,,-4,200.5796,1,10,,,,,,,,,,,,,ayu,2024-07-01_16h58.33.404,demoExp_V2,2021.2.3,Win32,59.88023952,,,,,,,,,-0.025,0.074375,1,0,0,group_1/1791.mp4,0.001875,0.005,1,0,0,9,0,9,0,1,response7disk_2,center_square_2,,
,,,,,,,,,,,,,,,,,,,,,,,,,,,,,,,,,,,,,0.8,,,,,,-4,207.6471,1,11,,,,,,,,,,,,,ayu,2024-07-01_16h58.33.404,demoExp_V2,2021.2.3,Win32,59.88023952,,,,,,,,,-0.02875,0.10625,1,0,0,group_1/1768.mp4,0.0075,-0.000625,1,0,0,10,0,10,0,1,response7disk_2,center_square_2,,
,,,,,,,,,,,,,,,,,,,,,,,,,,,,,,,,,,,,,0.7,,,,,,-4,215.7312,1,12,,,,,,,,,,,,,ayu,2024-07-01_16h58.33.404,demoExp_V2,2021.2.3,Win32,59.88023952,,,,,,,,,-0.023125,0.06875,1,0,0,group_1/1158.mp4,-0.003125,-0.00125,1,0,0,11,0,11,0,1,response7disk_2,center_square_2,,
,,,,,,,,,,,,,,,,,,,,,,,,,,,,,,,,,,,,,0.7,,,,,,-4,220.3148,1,13,,,,,,,,,,,,,ayu,2024-07-01_16h58.33.404,demoExp_V2,2021.2.3,Win32,59.88023952,,,,,,,,,-0.055,0.116875,1,0,0,group_1/1169.mp4,-0.00625,0.00625,1,0,0,12,0,12,0,1,response7disk_2,center_square_2,,
,,,,,,,,,,,,,,,,,,,,,,,,,,,,,,,,,,,,,1,,,,,,-1,225.5156,1,14,,,,,,,,,,,,,ayu,2024-07-01_16h58.33.404,demoExp_V2,2021.2.3,Win32,59.88023952,,,,,,,,,-0.041875,-0.10375,1,0,0,group_1/1071.mp4,0.000625,-0.00125,1,0,0,13,0,13,0,1,response5disk_2,center_square_2,,
,,,,,,,,,,,,,,,,,,,,,,,,,,,,,,,,,,,,,1,,,,,,-4,232.7163,1,15,,,,,,,,,,,,,ayu,2024-07-01_16h58.33.404,demoExp_V2,2021.2.3,Win32,59.88023952,,,,,,,,,-0.05,0.1425,1,0,0,group_1/1768.mp4,0,-0.005625,1,0,0,14,0,14,0,1,response7disk_2,center_square_2,,
,,,,,,,,,,,,,,,,,,,,,,,,,,,,,,,,,,,,,0.5,,,,,,-4,239.6006,1,16,,,,,,,,,,,,,ayu,2024-07-01_16h58.33.404,demoExp_V2,2021.2.3,Win32,59.88023952,,,,,,,,,-0.030625,0.10375,1,0,0,group_1/0927.mp4,0.005,0.01375,1,0,0,15,0,15,0,1,response7disk_2,center_square_2,,
,,,,,,,,,,,,,,,,,,,,,,,,,,,,,,,,,,,,,0.9,,,,,,-4,245.1347,1,17,,,,,,,,,,,,,ayu,2024-07-01_16h58.33.404,demoExp_V2,2021.2.3,Win32,59.88023952,,,,,,,,,-0.045625,0.08375,1,0,0,group_1/1169.mp4,0.000625,0.003125,1,0,0,16,0,16,0,1,response7disk_2,center_square_2,,
,,,,,,,,,,,,,,,,,,,,,,,,,,,,,,,,,,,,,0.6,,,,,,-4,253.3184,1,18,,,,,,,,,,,,,ayu,2024-07-01_16h58.33.404,demoExp_V2,2021.2.3,Win32,59.88023952,,,,,,,,,-0.0575,0.085,1,0,0,group_1/1703.mp4,-0.004375,0,1,0,0,17,0,17,0,1,response7disk_2,center_square_2,,
,,,,,,,,,,,,,,,,,,,,,,,,,,,,,,,,,,,,,0.6,,,,,,4,260.1027,1,19,,,,,,,,,,,,,ayu,2024-07-01_16h58.33.404,demoExp_V2,2021.2.3,Win32,59.88023952,,,,,,,,,0.06875,0.100625,1,0,0,group_1/1768.mp4,0.005625,0.00125,1,0,0,18,0,18,0,1,response1disk_2,center_square_2,,
,,,,,,,,,,,,,,,,,,,,,,,,,,,,,,,,,,,,,0.8,,,,,,1,264.8194,1,20,,,,,,,,,,,,,ayu,2024-07-01_16h58.33.404,demoExp_V2,2021.2.3,Win32,59.88023952,,,,,,,,,0.05625,-0.085,1,0,0,group_1/1375.mp4,0.0075,0.0025,1,0,0,19,0,19,0,1,response3disk_2,center_square_2,,
,,,,,,,,,,,,,,,,,,,,,,,,,,,,,,,,,,,,,0.5,,,,,,-2,282.4957,1,21,,,,,,,,,,,,,ayu,2024-07-01_16h58.33.404,demoExp_V2,2021.2.3,Win32,59.88023952,,,,,,,,,-0.08,-0.02375,1,0,0,group_1/0283.mp4,-0.004375,0.005,1,0,0,20,0,20,0,1,response5disk_2,center_square_2,,
,,,,,,,,,,,,,,,,,,,,,,,,,,,,,,,,,,,,,0.5,,,,,,1,290.739,1,22,,,,,,,,,,,,,ayu,2024-07-01_16h58.33.404,demoExp_V2,2021.2.3,Win32,59.88023952,,,,,,,,,0.0375,-0.08125,1,0,0,group_1/1703.mp4,0.00125,-0.00875,1,0,0,21,0,21,0,1,response3disk_2,center_square_2,,
,,,,,,,,,,,,,,,,,,,,,,,,,,,,,,,,,,,,,0.5,,,,,,2,295.1225,1,23,,,,,,,,,,,,,ayu,2024-07-01_16h58.33.404,demoExp_V2,2021.2.3,Win32,59.88023952,,,,,,,,,0.086875,-0.0325,1,0,0,group_1/0059.mp4,0.003125,0.005,1,0,0,22,0,22,0,1,response3disk_2,center_square_2,,
,,,,,,,,,,,,,,,,,,,,,,,,,,,,,,,,,,,,,0.7,,,,,,1,302.2235,1,24,,,,,,,,,,,,,ayu,2024-07-01_16h58.33.404,demoExp_V2,2021.2.3,Win32,59.88023952,,,,,,,,,0.004375,-0.125625,1,0,0,group_1/0927.mp4,-0.000625,-0.006875,1,0,0,23,0,23,0,1,response3disk_2,center_square_2,,
,,,,,,,,,,,,,,,,,,,,,,,,,,,,,,,,,,,,,0.6,,,,,,-4,319.5827,1,25,,,,,,,,,,,,,ayu,2024-07-01_16h58.33.404,demoExp_V2,2021.2.3,Win32,59.88023952,,,,,,,,,-0.040625,0.09,1,0,0,group_1/0283.mp4,-0.01,0.013125,1,0,0,24,0,24,0,1,response7disk_2,center_square_2,,
,,,,,,,,,,,,,,,,,,,,,,,,,,,,,,,,,,,,,1,,,,,,1,324.2587,1,26,,,,,,,,,,,,,ayu,2024-07-01_16h58.33.404,demoExp_V2,2021.2.3,Win32,59.88023952,,,,,,,,,0.04375,-0.09,1,0,0,group_1/1071.mp4,-0.00375,0.004375,1,0,0,25,0,25,0,1,response3disk_2,center_square_2,,
,,,,,,,,,,,,,,,,,,,,,,,,,,,,,,,,,,,,,0.9,,,,,,-3,328.959,1,27,,,,,,,,,,,,,ayu,2024-07-01_16h58.33.404,demoExp_V2,2021.2.3,Win32,59.88023952,,,,,,,,,-0.076875,0.03125,1,0,0,group_1/0059.mp4,0.0125,-0.009375,1,0,0,26,0,26,0,1,response7disk_2,center_square_2,,
,,,,,,,,,,,,,,,,,,,,,,,,,,,,,,,,,,,,,0.6,,,,,,1,336.3431,1,28,,,,,,,,,,,,,ayu,2024-07-01_16h58.33.404,demoExp_V2,2021.2.3,Win32,59.88023952,,,,,,,,,0.020625,-0.078125,1,0,0,group_1/1158.mp4,-0.0075,0.003125,1,0,0,27,0,27,0,1,response3disk_2,center_square_2,,
,,,,,,,,,,,,,,,,,,,,,,,,,,,,,,,,,,,,,0.7,,,,,,-4,353.1116,1,29,,,,,,,,,,,,,ayu,2024-07-01_16h58.33.404,demoExp_V2,2021.2.3,Win32,59.88023952,,,,,,,,,-0.0525,0.076875,1,0,0,group_1/0283.mp4,-0.008125,0.0025,1,0,0,28,0,28,0,1,response7disk_2,center_square_2,,
,,,,,,,,,,,,,,,,,,,,,,,,,,,,,,,,,,,,,0.5,,,,,,-4,355.5954,1,30,,,,,,,,,,,,,ayu,2024-07-01_16h58.33.404,demoExp_V2,2021.2.3,Win32,59.88023952,,,,,,,,,-0.06875,0.118125,1,0,0,group_1/1791.mp4,-0.00125,0.00375,1,0,0,29,0,29,0,1,response7disk_2,center_square_2,,
,,,,,,,,,,,,,,,,,,,,,,,,,,,,,,,,,,,,,0.6,,,,,,-4,359.7793,1,31,,,,,,,,,,,,,ayu,2024-07-01_16h58.33.404,demoExp_V2,2021.2.3,Win32,59.88023952,,,,,,,,,-0.05375,0.094375,1,0,0,group_1/0059.mp4,0,-0.001875,1,0,0,30,0,30,0,1,response7disk_2,center_square_2,,
,,,,,,,,,,,,,,,,,,,,,,,,,,,,,,,,,,,,,0.8,,,,,,-4,370.6468,1,32,,,,,,,,,,,,,ayu,2024-07-01_16h58.33.404,demoExp_V2,2021.2.3,Win32,59.88023952,,,,,,,,,-0.071875,0.121875,1,0,0,group_1/1292.mp4,-0.013125,0.003125,1,0,0,31,0,31,0,1,response7disk_2,center_square_2,,
,,,,,,,,,,,,,,,,,,,,,,,,,,,,,,,,,,,,,0.6,,,,,,2,388.3318,1,33,,,,,,,,,,,,,ayu,2024-07-01_16h58.33.404,demoExp_V2,2021.2.3,Win32,59.88023952,,,,,,,,,0.130625,-0.04875,1,0,0,group_1/0283.mp4,0.001875,0.005,1,0,0,32,0,32,0,1,response3disk_2,center_square_2,,
,,,,,,,,,,,,,,,,,,,,,,,,,,,,,,,,,,,,,0.5,,,,,,2,396.3828,1,34,,,,,,,,,,,,,ayu,2024-07-01_16h58.33.404,demoExp_V2,2021.2.3,Win32,59.88023952,,,,,,,,,0.0975,-0.034375,1,0,0,group_1/2138.mp4,0.006875,0.00625,1,0,0,33,0,33,0,1,response3disk_2,center_square_2,,
,,,,,,,,,,,,,,,,,,,,,,,,,,,,,,,,,,,,,1,,,,,,-4,401.1001,1,35,,,,,,,,,,,,,ayu,2024-07-01_16h58.33.404,demoExp_V2,2021.2.3,Win32,59.88023952,,,,,,,,,-0.04875,0.0825,1,0,0,group_1/0059.mp4,-0.0125,0.004375,1,0,0,34,0,34,0,1,response7disk_2,center_square_2,,
,,,,,,,,,,,,,,,,,,,,,,,,,,,,,,,,,,,,,0.6,,,,,,-4,405.1505,1,36,,,,,,,,,,,,,ayu,2024-07-01_16h58.33.404,demoExp_V2,2021.2.3,Win32,59.88023952,,,,,,,,,-0.063125,0.1175,1,0,0,group_1/1375.mp4,-0.01125,0.00125,1,0,0,35,0,35,0,1,response7disk_2,center_square_2,,
,,,,,,,,,,,,,,,,,,,,,,,,,,,,,,,,,,,,,0.7,,,,,,-1,413.4512,1,37,,,,,,,,,,,,,ayu,2024-07-01_16h58.33.404,demoExp_V2,2021.2.3,Win32,59.88023952,,,,,,,,,-0.07625,-0.10625,1,0,0,group_1/2138.mp4,-0.0025,0.005,1,0,0,36,0,36,0,1,response5disk_2,center_square_2,,
,,,,,,,,,,,,,,,,,,,,,,,,,,,,,,,,,,,,,0.5,,,,,,-4,421.3933,1,38,,,,,,,,,,,,,ayu,2024-07-01_16h58.33.404,demoExp_V2,2021.2.3,Win32,59.88023952,,,,,,,,,-0.05875,0.105625,1,0,0,group_1/1703.mp4,0.00125,0.00125,1,0,0,37,0,37,0,1,response7disk_2,center_square_2,,
,,,,,,,,,,,,,,,,,,,,,,,,,,,,,,,,,,,,,0.8,,,,,,3,431.5271,1,39,,,,,,,,,,,,,ayu,2024-07-01_16h58.33.404,demoExp_V2,2021.2.3,Win32,59.88023952,,,,,,,,,0.085625,0.01625,1,0,0,group_1/1292.mp4,-0.0025,-0.006875,1,0,0,38,0,38,0,1,response1disk_2,center_square_2,,
,,,,,,,,,,,,,,,,,,,,,,,,,,,,,,,,,,,,,0.9,,,,,,-4,438.7701,1,40,,,,,,,,,,,,,ayu,2024-07-01_16h58.33.404,demoExp_V2,2021.2.3,Win32,59.88023952,,,,,,,,,-0.06,0.115625,1,0,0,group_1/0927.mp4,0.000625,0.00625,1,0,0,39,0,39,0,1,response7disk_2,center_square_2,,
,,,,,,,,,,,,,,,,,,,,,,,,,,,,,,,,,,,,,0.7,,,,,,1,450.1049,1,41,,,,,,,,,,,,,ayu,2024-07-01_16h58.33.404,demoExp_V2,2021.2.3,Win32,59.88023952,,,,,,,,,0.03125,-0.17375,1,0,0,group_1/2138.mp4,0.00625,-0.005625,1,0,0,40,0,40,0,1,response3disk_2,center_square_2,,
,,,,,,,,,,,,,,,,,,,,,,,,,,,,,,,,,,,,,0.8,,,,,,-4,457.6722,1,42,,,,,,,,,,,,,ayu,2024-07-01_16h58.33.404,demoExp_V2,2021.2.3,Win32,59.88023952,,,,,,,,,-0.08875,0.165625,1,0,0,group_1/1071.mp4,0,0.00375,1,0,0,41,0,41,0,1,response7disk_2,center_square_2,,
,,,,,,,,,,,,,,,,,,,,,,,,,,,,,,,,,,,,,0.5,,,,,,-2,468.0566,1,43,,,,,,,,,,,,,ayu,2024-07-01_16h58.33.404,demoExp_V2,2021.2.3,Win32,59.88023952,,,,,,,,,-0.084375,-0.04625,1,0,0,group_1/1292.mp4,-0.015,-0.00125,1,0,0,42,0,42,0,1,response5disk_2,center_square_2,,
,,,,,,,,,,,,,,,,,,,,,,,,,,,,,,,,,,,,,0.5,,,,,,-4,475.3817,1,44,,,,,,,,,,,,,ayu,2024-07-01_16h58.33.404,demoExp_V2,2021.2.3,Win32,59.88023952,,,,,,,,,-0.0425,0.11375,1,0,0,group_1/1158.mp4,0.009375,0.003125,1,0,0,43,0,43,0,1,response7disk_2,center_square_2,,
,,,,,,,,,,,,,,,,,,,,,,,,,,,,,,,,,,,,,0.7,,,,,,-4,483.6416,1,45,,,,,,,,,,,,,ayu,2024-07-01_16h58.33.404,demoExp_V2,2021.2.3,Win32,59.88023952,,,,,,,,,-0.05875,0.115625,1,0,0,group_1/2138.mp4,-0.010625,0.01,1,0,0,44,0,44,0,1,response7disk_2,center_square_2,,
,,,,,,,,,,,,,,,,,,,,,,,,,,,,,,,,,,,,,0.8,,,,,,-4,486.4588,1,46,,,,,,,,,,,,,ayu,2024-07-01_16h58.33.404,demoExp_V2,2021.2.3,Win32,59.88023952,,,,,,,,,-0.02875,0.085,1,0,0,group_1/1791.mp4,0.005,0.0075,1,0,0,45,0,45,0,1,response7disk_2,center_square_2,,
,,,,,,,,,,,,,,,,,,,,,,,,,,,,,,,,,,,,,0.7,,,,,,-4,496.893,1,47,,,,,,,,,,,,,ayu,2024-07-01_16h58.33.404,demoExp_V2,2021.2.3,Win32,59.88023952,,,,,,,,,-0.051875,0.108125,1,0,0,group_1/1292.mp4,-0.0025,-0.00125,1,0,0,46,0,46,0,1,response7disk_2,center_square_2,,
,,,,,,,,,,,,,,,,,,,,,,,,,,,,,,,,,,,,,0.6,,,,,,1,500.7506,1,48,,,,,,,,,,,,,ayu,2024-07-01_16h58.33.404,demoExp_V2,2021.2.3,Win32,59.88023952,,,,,,,,,0.033125,-0.055,1,0,0,group_1/1375.mp4,0.00375,0.011875,1,0,0,47,0,47,0,1,response3disk_2,center_square_2,,
,,,,,,,,,,,,,,,,,,,,,,,,,,,,,,,,,,,,,0.6,,,,,,-4,502.927,1,49,,,,,,,,,,,,,ayu,2024-07-01_16h58.33.404,demoExp_V2,2021.2.3,Win32,59.88023952,,,,,,,,,-0.03625,0.08125,1,0,0,group_1/1791.mp4,-0.010625,-0.005,1,0,0,48,0,48,0,1,response7disk_2,center_square_2,,
,,,,,,,,,,,,,,,,,,,,,,,,,,,,,,,,,,,,,1,,,,,,-4,510.9682,1,50,,,,,,,,,,,,,ayu,2024-07-01_16h58.33.404,demoExp_V2,2021.2.3,Win32,59.88023952,,,,,,,,,-0.05625,0.1,1,0,0,group_1/1703.mp4,-0.00375,0.00625,1,0,0,49,0,49,0,1,response7disk_2,center_square_2,,
,,,,,,,,,,,,,,,,,,,,,,,,,,,,,,,,,,,,,1,,,,,,-4,518.8455,1,51,,,,,,,,,,,,,ayu,2024-07-01_16h58.33.404,demoExp_V2,2021.2.3,Win32,59.88023952,,,,,,,,,-0.0275,0.109375,1,0,0,group_1/1158.mp4,0.003125,0.006875,1,0,0,50,0,50,0,1,response7disk_2,center_square_2,,
,,,,,,,,,,,,,,,,,,,,,,,,,,,,,,,,,,,,,0.9,,,,,,1,526.0957,1,52,,,,,,,,,,,,,ayu,2024-07-01_16h58.33.404,demoExp_V2,2021.2.3,Win32,59.88023952,,,,,,,,,0.030625,-0.0925,1,0,0,group_1/0927.mp4,0.0025,-0.0025,1,0,0,51,0,51,0,1,response3disk_2,center_square_2,,
,,,,,,,,,,,,,,,,,,,,,,,,,,,,,,,,,,,,,0.9,,,,,,-4,528.6628,1,53,,,,,,,,,,,,,ayu,2024-07-01_16h58.33.404,demoExp_V2,2021.2.3,Win32,59.88023952,,,,,,,,,-0.036875,0.124375,1,0,0,group_1/1791.mp4,-0.001875,-0.00125,1,0,0,52,0,52,0,1,response7disk_2,center_square_2,,
,,,,,,,,,,,,,,,,,,,,,,,,,,,,,,,,,,,,,0.7,,,,,,-4,532.4298,1,54,,,,,,,,,,,,,ayu,2024-07-01_16h58.33.404,demoExp_V2,2021.2.3,Win32,59.88023952,,,,,,,,,-0.0375,0.104375,1,0,0,group_1/1071.mp4,-0.000625,0.003125,1,0,0,53,0,53,0,1,response7disk_2,center_square_2,,
,,,,,,,,,,,,,,,,,,,,,,,,,,,,,,,,,,,,,0.6,,,,,,-4,539.8714,1,55,,,,,,,,,,,,,ayu,2024-07-01_16h58.33.404,demoExp_V2,2021.2.3,Win32,59.88023952,,,,,,,,,-0.03875,0.11375,1,0,0,group_1/1158.mp4,-0.004375,0.009375,1,0,0,54,0,54,0,1,response7disk_2,center_square_2,,
,,,,,,,,,,,,,,,,,,,,,,,,,,,,,,,,,,,,,0.5,,,,,,-4,543.9978,1,56,,,,,,,,,,,,,ayu,2024-07-01_16h58.33.404,demoExp_V2,2021.2.3,Win32,59.88023952,,,,,,,,,-0.016875,0.0425,1,0,0,group_1/1375.mp4,0.001875,-0.0025,1,0,0,55,0,55,0,1,response7disk_2,center_square_2,,
,,,,,,,,,,,,,,,,,,,,,,,,,,,,,,,,,,,,,0.5,,,,,,-4,547.7979,1,57,,,,,,,,,,,,,ayu,2024-07-01_16h58.33.404,demoExp_V2,2021.2.3,Win32,59.88023952,,,,,,,,,-0.0325,0.1025,1,0,0,group_1/1071.mp4,0.006875,0.00875,1,0,0,56,0,56,0,1,response7disk_2,center_square_2,,
,,,,,,,,,,,,,,,,,,,,,,,,,,,,,,,,,,,,,1,,,,,,-4,557.5326,1,58,,,,,,,,,,,,,ayu,2024-07-01_16h58.33.404,demoExp_V2,2021.2.3,Win32,59.88023952,,,,,,,,,-0.038125,0.119375,1,0,0,group_1/1703.mp4,0.005,-0.004375,1,0,0,57,0,57,0,1,response7disk_2,center_square_2,,
,,,,,,,,,,,,,,,,,,,,,,,,,,,,,,,,,,,,,0.8,,,,,,-4,565.9165,1,59,,,,,,,,,,,,,ayu,2024-07-01_16h58.33.404,demoExp_V2,2021.2.3,Win32,59.88023952,,,,,,,,,-0.055625,0.143125,1,0,0,group_1/0927.mp4,0.00375,-0.00625,1,0,0,58,0,58,0,1,response7disk_2,center_square_2,,
,,,,,,,,,,,,,,,,,,,,,,,,,,,,,,,,,,,,,1,,,,,,-4,570.2064,1,60,,,,,,,,,,,,,ayu,2024-07-01_16h58.33.404,demoExp_V2,2021.2.3,Win32,59.88023952,,,,,,,,,-0.038125,0.123125,1,0,0,group_1/1375.mp4,0.0125,-0.0025,1,0,0,59,0,59,0,1,response7disk_2,center_square_2,,
,,,,,,,,,,,,,,,,,,,,,,,,,,,,,,,,,,,,,0.7,,,,,,-4,578.1678,1,61,,,,,,,,,,,,,ayu,2024-07-01_16h58.33.404,demoExp_V2,2021.2.3,Win32,59.88023952,,,,,,,,,-0.090625,0.16,1,0,0,group_1/1703.mp4,0.0025,0.00625,1,0,0,60,0,60,0,1,response7disk_2,center_square_2,,
,,,,,,,,,,,,,,,,,,,,,,,,,,,,,,,,,,,,,1,,,,,,-4,585.5024,1,62,,,,,,,,,,,,,ayu,2024-07-01_16h58.33.404,demoExp_V2,2021.2.3,Win32,59.88023952,,,,,,,,,-0.04,0.095,1,0,0,group_1/0927.mp4,0,0.006875,1,0,0,61,0,61,0,1,response7disk_2,center_square_2,,
,,,,,,,,,,,,,,,,,,,,,,,,,,,,,,,,,,,,,0.6,,,,,,-4,591.6193,1,63,,,,,,,,,,,,,ayu,2024-07-01_16h58.33.404,demoExp_V2,2021.2.3,Win32,59.88023952,,,,,,,,,-0.053125,0.071875,1,0,0,group_1/1071.mp4,-0.00875,-0.00875,1,0,0,62,0,62,0,1,response7disk_2,center_square_2,,
,,,,,,,,,,,,,,,,,,,,,,,,,,,,,,,,,,,,,0.6,,,,,,-4,599.0535,1,64,,,,,,,,,,,,,ayu,2024-07-01_16h58.33.404,demoExp_V2,2021.2.3,Win32,59.88023952,,,,,,,,,-0.0325,0.1025,1,0,0,group_1/1158.mp4,-0.001875,-0.00125,1,0,0,63,0,63,0,1,response7disk_2,center_square_2,,
,,,,,,,,,,,,,,,,,,,,,,,,,,,,,,,,,,,,,0.9,,,,,,-4,601.745,1,65,,,,,,,,,,,,,ayu,2024-07-01_16h58.33.404,demoExp_V2,2021.2.3,Win32,59.88023952,,,,,,,,,-0.043125,0.094375,1,0,0,group_1/1791.mp4,0.000625,-0.003125,1,0,0,64,0,64,0,1,response7disk_2,center_square_2,,
,,,,,,,,,,,,,,,,,,,,,,,,,,,,,,,,,,,,,0.6,,,,,,-4,612.0725,1,66,,,,,,,,,,,,,ayu,2024-07-01_16h58.33.404,demoExp_V2,2021.2.3,Win32,59.88023952,,,,,,,,,-0.011875,0.129375,1,0,0,group_1/1292.mp4,0.006875,-0.005625,1,0,0,65,0,65,0,1,response7disk_2,center_square_2,,
,,,,,,,,,,,,,,,,,,,,,,,,,,,,,,,,,,,,,0.9,,,,,,1,620.4885,1,67,,,,,,,,,,,,,ayu,2024-07-01_16h58.33.404,demoExp_V2,2021.2.3,Win32,59.88023952,,,,,,,,,0.05,-0.145,1,0,0,group_1/2138.mp4,0.008125,-0.01125,1,0,0,66,0,66,0,1,response3disk_2,center_square_2,,
,,,,,,,,,,,,,,,,,,,,,,,,,,,,,,,,,,,,,0.5,,,,,,-4,624.7558,1,68,,,,,,,,,,,,,ayu,2024-07-01_16h58.33.404,demoExp_V2,2021.2.3,Win32,59.88023952,,,,,,,,,-0.070625,0.11125,1,0,0,group_1/0059.mp4,0.010625,-0.0025,1,0,0,67,0,67,0,1,response7disk_2,center_square_2,,
,,,,,,,,,,,,,,,,,,,,,,,,,,,,,,,,,,,,,0.5,,,,,,1,641.8079,1,69,,,,,,,,,,,,,ayu,2024-07-01_16h58.33.404,demoExp_V2,2021.2.3,Win32,59.88023952,,,,,,,,,0.051875,-0.1025,1,0,0,group_1/0283.mp4,0.006875,-0.011875,1,0,0,68,0,68,0,1,response3disk_2,center_square_2,,
,,,,,,,,,,,,,,,,,,,,,,,,,,,,,,,,,,,,,0.9,,,,,,-3,646.4584,1,70,,,,,,,,,,,,,ayu,2024-07-01_16h58.33.404,demoExp_V2,2021.2.3,Win32,59.88023952,,,,,,,,,-0.080625,0.016875,1,0,0,group_1/1169.mp4,-0.01375,-0.01125,1,0,0,69,0,69,0,1,response7disk_2,center_square_2,,
,,,,,,,,,,,,,,,,,,,,,,,,,,,,,,,,,,,,,1,,,,,,-4,650.7419,1,71,,,,,,,,,,,,,ayu,2024-07-01_16h58.33.404,demoExp_V2,2021.2.3,Win32,59.88023952,,,,,,,,,-0.04875,0.105,1,0,0,group_1/1375.mp4,-0.008125,0.00125,1,0,0,70,0,70,0,1,response7disk_2,center_square_2,,
,,,,,,,,,,,,,,,,,,,,,,,,,,,,,,,,,,,,,,,,,,,,,,,,,,,,,,,,,,,ayu,2024-07-01_16h58.33.404,demoExp_V2,2021.2.3,Win32,59.88023952,,,,,,,,,,,,,,,,,,,,,,,,,,,space,2.2955
