sequence,mouse.x,mouse.y,mouse.leftButton,mouse.midButton,mouse.rightButton,mouse.clicked_name,mouse_2.x,mouse_2.y,mouse_2.leftButton,mouse_2.midButton,mouse_2.rightButton,mouse_2.clicked_name,mouse_12.x,mouse_12.y,mouse_12.leftButton,mouse_12.midButton,mouse_12.rightButton,mouse_12.clicked_name,mouse_3.x,mouse_3.y,mouse_3.leftButton,mouse_3.midButton,mouse_3.rightButton,mouse_3.clicked_name,mouse_11.x,mouse_11.y,mouse_11.leftButton,mouse_11.midButton,mouse_11.rightButton,mouse_11.clicked_name,mouse_8.x,mouse_8.y,mouse_8.leftButton,mouse_8.midButton,mouse_8.rightButton,mouse_8.clicked_name,cross_time[0],mouse_5.x,mouse_5.y,mouse_5.leftButton,mouse_5.midButton,mouse_5.rightButton,similarity,response_time,Pass,trialNumber,mouse_7.x,mouse_7.y,mouse_7.leftButton,mouse_7.midButton,mouse_7.rightButton,prac_trials.thisRepN,prac_trials.thisTrialN,prac_trials.thisN,prac_trials.thisIndex,prac_trials.ran,video_file,video_id,Prolific_ID*,date,expName,psychopyVersion,OS,frameRate,mouse_5.clicked_name,mouse_7.clicked_name,mouse_4.x,mouse_4.y,mouse_4.leftButton,mouse_4.midButton,mouse_4.rightButton,mouse_4.clicked_name,mouse_9.x,mouse_9.y,mouse_9.leftButton,mouse_9.midButton,mouse_9.rightButton,this_video,mouse_6.x,mouse_6.y,mouse_6.leftButton,mouse_6.midButton,mouse_6.rightButton,Experiment.thisRepN,Experiment.thisTrialN,Experiment.thisN,Experiment.thisIndex,Experiment.ran,mouse_9.clicked_name,mouse_6.clicked_name,key_resp.keys,key_resp.rt
"[""group_1/1071.mp4"",""group_1/1158.mp4"",""group_1/1292.mp4"",""group_1/1071.mp4"",""group_1/0927.mp4"",""group_1/1158.mp4"",""group_1/1169.mp4"",""group_1/1375.mp4"",""group_1/1158.mp4"",""group_1/1768.mp4"",""group_1/1071.mp4"",""group_1/1791.mp4"",""group_1/1158.mp4"",""group_1/0283.mp4"",""group_1/1071.mp4"",""group_1/2138.mp4"",""group_1/1158.mp4"",""group_1/0059.mp4"",""group_1/1071.mp4"",""group_1/1703.mp4"",""group_1/1292.mp4"",""group_1/0059.mp4"",""group_1/0927.mp4"",""group_1/2138.mp4"",""group_1/1292.mp4"",""group_1/0283.mp4"",""group_1/0927.mp4"",""group_1/1791.mp4"",""group_1/1292.mp4"",""group_1/1768.mp4"",""group_1/0927.mp4"",""group_1/1375.mp4"",""group_1/1292.mp4"",""group_1/1169.mp4"",""group_1/0927.mp4"",""group_1/1703.mp4"",""group_1/1169.mp4"",""group_1/0059.mp4"",""group_1/1375.mp4"",""group_1/2138.mp4"",""group_1/1169.mp4"",""group_1/0283.mp4"",""group_1/1375.mp4"",""group_1/1791.mp4"",""group_1/1169.mp4"",""group_1/1768.mp4"",""group_1/1375.mp4"",""group_1/1703.mp4"",""group_1/1768.mp4"",""group_1/0059.mp4"",""group_1/1791.mp4"",""group_1/2138.mp4"",""group_1/1768.mp4"",""group_1/0283.mp4"",""group_1/1791.mp4"",""group_1/1703.mp4"",""group_1/0283.mp4"",""group_1/0059.mp4"",""group_1/2138.mp4"",""group_1/1703.mp4"",""group_1/0059.mp4"",""group_1/2138.mp4"",""group_1/0283.mp4"",""group_1/1791.mp4"",""group_1/1768.mp4"",""group_1/1375.mp4"",""group_1/1169.mp4"",""group_1/0927.mp4"",""group_1/1292.mp4"",""group_1/1158.mp4"",""group_1/1703.mp4""]",0.04108095,-0.405342081,1,0,0,image,0.046079369,-0.397844424,1,0,0,image_2,0.046079369,-0.397844424,1,0,0,image,0.09481414,-0.453452084,1,0,0,image,0.056076264,-0.374101862,1,0,0,image,-0.002030577,-0.001718251,1,0,0,center_square_3,0.6,-0.000780987,-0.006091846,0,0,0,-1,49.6444,1,1,-0.000780987,-0.006091846,0,0,0,0,0,0,0,1,videos/0001.mp4,1,showatanabe,2024-06-28_14h01.11.437,demoExp_V2,2021.2.3,Win32,161.2903226,,,,,,,,,,,,,,,,,,,,,,,,,,,,
,,,,,,,,,,,,,,,,,,,,,,,,,,,,,,,,,,,,,1,0.023586398,0.11699467,1,0,0,4,53.339,1,2,-0.008903468,-0.00546708,1,0,0,0,1,1,1,1,videos/0002.mp4,2,showatanabe,2024-06-28_14h01.11.437,demoExp_V2,2021.2.3,Win32,161.2903226,response1disk,center_square,,,,,,,,,,,,,,,,,,,,,,,,,,
,,,,,,,,,,,,,,,,,,,,,,,,,,,,,,,,,,,,,0.8,0.06857234,-0.03420806,1,0,0,2,63.6298,1,3,-0.008278644,0.00640423,1,0,0,0,2,2,2,1,videos/0003.mp4,3,showatanabe,2024-06-28_14h01.11.437,demoExp_V2,2021.2.3,Win32,161.2903226,response3disk,center_square,,,,,,,,,,,,,,,,,,,,,,,,,,
,,,,,,,,,,,,,,,,,,,,,,,,,,,,,,,,,,,,,0.7,-0.110746604,0.005779406,1,0,0,-3,74.2781,1,4,-0.010153058,-0.00546708,1,0,0,0,3,3,3,1,videos/0004.mp4,4,showatanabe,2024-06-28_14h01.11.437,demoExp_V2,2021.2.3,Win32,161.2903226,response7disk,center_square,,,,,,,,,,,,,,,,,,,,,,,,,,
,,,,,,,,,,,,,,,,,,,,,,,,,,,,,,,,,,,,,1,-0.101999356,-0.046704193,1,0,0,-2,83.0114,1,5,0.007966261,-0.007966261,1,0,0,0,4,4,4,1,videos/0005.mp4,5,showatanabe,2024-06-28_14h01.11.437,demoExp_V2,2021.2.3,Win32,161.2903226,response5disk,center_square,,,,,,,,,,,,,,,,,,,,,,,,,,
,,,,,,,,,,,,,,,,,,,,,,,,,,,,,,,,,,,,,0.8,-0.111996251,0.082005623,1,0,0,-3,97.3087,1,6,-0.012652296,0.002655401,1,0,0,0,5,5,5,1,videos/0006.mp4,6,showatanabe,2024-06-28_14h01.11.437,demoExp_V2,2021.2.3,Win32,161.2903226,response7disk,center_square,,,,,,,,,,,,,,,,,,,,,,,,,,
,,,,,,,,,,,,,,,,,,,,,,,,,,,,,,,-0.009528234,-0.000468604,1,0,0,center_square_3,0.7,,,,,,-1,112.0135,1,1,,,,,,,,,,,,,showatanabe,2024-06-28_14h01.11.437,demoExp_V2,2021.2.3,Win32,161.2903226,,,0.026085636,-0.383473933,1,0,0,image,-0.023273958,-0.445954427,0,0,0,group_1/1071.mp4,-0.023273958,-0.445954427,0,0,0,0,0,0,0,1,,,,
,,,,,,,,,,,,,,,,,,,,,,,,,,,,,,,,,,,,,0.9,,,,,,1,120.5149,1,2,,,,,,,,,,,,,showatanabe,2024-06-28_14h01.11.437,demoExp_V2,2021.2.3,Win32,161.2903226,,,,,,,,,0.083567654,-0.145423324,1,0,0,group_1/1158.mp4,-0.011402649,0.010153058,1,0,0,1,0,1,0,1,response3disk_2,center_square_2,,
,,,,,,,,,,,,,,,,,,,,,,,,,,,,,,,,,,,,,0.5,,,,,,-2,131.1207,1,3,,,,,,,,,,,,,showatanabe,2024-06-28_14h01.11.437,demoExp_V2,2021.2.3,Win32,161.2903226,,,,,,,,,-0.121368322,-0.036082474,1,0,0,group_1/1292.mp4,0.004842256,-0.000468604,1,0,0,2,0,2,0,1,response5disk_2,center_square_2,,
,,,,,,,,,,,,,,,,,,,,,,,,,,,,,,,,,,,,,0.6,,,,,,-2,135.2842,1,4,,,,,,,,,,,,,showatanabe,2024-06-28_14h01.11.437,demoExp_V2,2021.2.3,Win32,161.2903226,,,,,,,,,-0.075757557,-0.046704193,1,0,0,group_1/1071.mp4,-0.003904992,0.005779406,1,0,0,3,0,3,0,1,response5disk_2,center_square_2,,
,,,,,,,,,,,,,,,,,,,,,,,,,,,,,,,,,,,,,0.9,,,,,,3,142.8418,1,5,,,,,,,,,,,,,showatanabe,2024-06-28_14h01.11.437,demoExp_V2,2021.2.3,Win32,161.2903226,,,,,,,,,0.15666981,0.01452671,1,0,0,group_1/0927.mp4,0.001718251,-0.014839151,1,0,0,4,0,4,0,1,response1disk_2,center_square_2,,
,,,,,,,,,,,,,,,,,,,,,,,,,,,,,,,,,,,,,0.5,,,,,,2,150.362,1,6,,,,,,,,,,,,,showatanabe,2024-06-28_14h01.11.437,demoExp_V2,2021.2.3,Win32,161.2903226,,,,,,,,,0.049828198,-0.029834465,1,0,0,group_1/1158.mp4,0.014214327,-0.002967842,1,0,0,5,0,5,0,1,response3disk_2,center_square_2,,
,,,,,,,,,,,,,,,,,,,,,,,,,,,,,,,,,,,,,0.9,,,,,,2,155.7993,1,7,,,,,,,,,,,,,showatanabe,2024-06-28_14h01.11.437,demoExp_V2,2021.2.3,Win32,161.2903226,,,,,,,,,0.036082474,-0.023586398,1,0,0,group_1/1169.mp4,0.008591084,0.000156163,1,0,0,6,0,6,0,1,response3disk_2,center_square_2,,
,,,,,,,,,,,,,,,,,,,,,,,,,,,,,,,,,,,,,0.5,,,,,,-3,159.3631,1,8,,,,,,,,,,,,,showatanabe,2024-06-28_14h01.11.437,demoExp_V2,2021.2.3,Win32,161.2903226,,,,,,,,,-0.123867503,0.097000937,1,0,0,group_1/1375.mp4,0.006091846,0.008278644,1,0,0,7,0,7,0,1,response7disk_2,center_square_2,,
,,,,,,,,,,,,,,,,,,,,,,,,,,,,,,,,,,,,,0.7,,,,,,-3,166.9739,1,9,,,,,,,,,,,,,showatanabe,2024-06-28_14h01.11.437,demoExp_V2,2021.2.3,Win32,161.2903226,,,,,,,,,-0.15135895,0.023898782,1,0,0,group_1/1158.mp4,-0.008903468,0.003904992,1,0,0,8,0,8,0,1,response7disk_2,center_square_2,,
,,,,,,,,,,,,,,,,,,,,,,,,,,,,,,,,,,,,,0.6,,,,,,-4,174.9754,1,10,,,,,,,,,,,,,showatanabe,2024-06-28_14h01.11.437,demoExp_V2,2021.2.3,Win32,161.2903226,,,,,,,,,-0.046391753,0.105123389,1,0,0,group_1/1768.mp4,-0.010777882,0.012652296,1,0,0,9,0,9,0,1,response7disk_2,center_square_2,,
,,,,,,,,,,,,,,,,,,,,,,,,,,,,,,,,,,,,,0.9,,,,,,-2,180.3632,1,11,,,,,,,,,,,,,showatanabe,2024-06-28_14h01.11.437,demoExp_V2,2021.2.3,Win32,161.2903226,,,,,,,,,-0.134489222,-0.015463918,1,0,0,group_1/1071.mp4,-0.012027472,0.00640423,1,0,0,10,0,10,0,1,response5disk_2,center_square_2,,
,,,,,,,,,,,,,,,,,,,,,,,,,,,,,,,,,,,,,0.9,,,,,,-2,187.5753,1,12,,,,,,,,,,,,,showatanabe,2024-06-28_14h01.11.437,demoExp_V2,2021.2.3,Win32,161.2903226,,,,,,,,,-0.070134314,-0.016713565,1,0,0,group_1/1791.mp4,0.002343018,0.003280225,1,0,0,11,0,11,0,1,response5disk_2,center_square_2,,
,,,,,,,,,,,,,,,,,,,,,,,,,,,,,,,,,,,,,0.5,,,,,,4,197.46,1,13,,,,,,,,,,,,,showatanabe,2024-06-28_14h01.11.437,demoExp_V2,2021.2.3,Win32,161.2903226,,,,,,,,,0.02108716,0.022024367,1,0,0,group_1/1158.mp4,0.003592665,0.000156163,1,0,0,12,0,12,0,1,response1disk_2,center_square_2,,
,,,,,,,,,,,,,,,,,,,,,,,,,,,,,,,,,,,,,0.9,,,,,,3,215.3267,1,14,,,,,,,,,,,,,showatanabe,2024-06-28_14h01.11.437,demoExp_V2,2021.2.3,Win32,161.2903226,,,,,,,,,0.094189316,0.070134314,1,0,0,group_1/0283.mp4,0.003592665,0.003280225,1,0,0,13,0,13,0,1,response1disk_2,center_square_2,,
,,,,,,,,,,,,,,,,,,,,,,,,,,,,,,,,,,,,,0.5,,,,,,1,219.9207,1,15,,,,,,,,,,,,,showatanabe,2024-06-28_14h01.11.437,demoExp_V2,2021.2.3,Win32,161.2903226,,,,,,,,,0.018587979,-0.111683868,1,0,0,group_1/1071.mp4,0.002343018,-0.00671667,1,0,0,14,0,14,0,1,response3disk_2,center_square_2,,
,,,,,,,,,,,,,,,,,,,,,,,,,,,,,,,,,,,,,0.7,,,,,,2,229.1268,1,16,,,,,,,,,,,,,showatanabe,2024-06-28_14h01.11.437,demoExp_V2,2021.2.3,Win32,161.2903226,,,,,,,,,0.05545144,-0.033583293,1,0,0,group_1/2138.mp4,-0.010153058,-0.004217432,1,0,0,15,0,15,0,1,response3disk_2,center_square_2,,
,,,,,,,,,,,,,,,,,,,,,,,,,,,,,,,,,,,,,0.6,,,,,,4,236.5186,1,17,,,,,,,,,,,,,showatanabe,2024-06-28_14h01.11.437,demoExp_V2,2021.2.3,Win32,161.2903226,,,,,,,,,0.071696345,0.11574508,1,0,0,group_1/1158.mp4,-0.003280225,0.012027472,1,0,0,16,0,16,0,1,response1disk_2,center_square_2,,
,,,,,,,,,,,,,,,,,,,,,,,,,,,,,,,,,,,,,1,,,,,,3,242.1025,1,18,,,,,,,,,,,,,showatanabe,2024-06-28_14h01.11.437,demoExp_V2,2021.2.3,Win32,161.2903226,,,,,,,,,0.092939725,0.023273958,1,0,0,group_1/0059.mp4,-0.00640423,-0.003592665,1,0,0,17,0,17,0,1,response1disk_2,center_square_2,,
,,,,,,,,,,,,,,,,,,,,,,,,,,,,,,,,,,,,,0.6,,,,,,2,247.8647,1,19,,,,,,,,,,,,,showatanabe,2024-06-28_14h01.11.437,demoExp_V2,2021.2.3,Win32,161.2903226,,,,,,,,,0.127928772,-0.028584817,1,0,0,group_1/1071.mp4,-0.012652296,-0.002967842,1,0,0,18,0,18,0,1,response3disk_2,center_square_2,,
,,,,,,,,,,,,,,,,,,,,,,,,,,,,,,,,,,,,,0.8,,,,,,-3,257.4059,1,20,,,,,,,,,,,,,showatanabe,2024-06-28_14h01.11.437,demoExp_V2,2021.2.3,Win32,161.2903226,,,,,,,,,-0.075132733,0.026397991,1,0,0,group_1/1703.mp4,-0.008903468,0.007029053,1,0,0,19,0,19,0,1,response7disk_2,center_square_2,,
,,,,,,,,,,,,,,,,,,,,,,,,,,,,,,,,,,,,,0.8,,,,,,3,268.3634,1,21,,,,,,,,,,,,,showatanabe,2024-06-28_14h01.11.437,demoExp_V2,2021.2.3,Win32,161.2903226,,,,,,,,,0.052327436,0.022649163,1,0,0,group_1/1292.mp4,0.016088741,-0.004217432,1,0,0,20,0,20,0,1,response1disk_2,center_square_2,,
,,,,,,,,,,,,,,,,,,,,,,,,,,,,,,,,,,,,,0.7,,,,,,-3,272.8843,1,22,,,,,,,,,,,,,showatanabe,2024-06-28_14h01.11.437,demoExp_V2,2021.2.3,Win32,161.2903226,,,,,,,,,-0.077631971,0.039518891,1,0,0,group_1/0059.mp4,-0.004529815,0.012652296,1,0,0,21,0,21,0,1,response7disk_2,center_square_2,,
,,,,,,,,,,,,,,,,,,,,,,,,,,,,,,,,,,,,,0.5,,,,,,3,279.7391,1,23,,,,,,,,,,,,,showatanabe,2024-06-28_14h01.11.437,demoExp_V2,2021.2.3,Win32,161.2903226,,,,,,,,,0.107310216,0.038269272,1,0,0,group_1/0927.mp4,-0.015151477,0.000780987,1,0,0,22,0,22,0,1,response1disk_2,center_square_2,,
,,,,,,,,,,,,,,,,,,,,,,,,,,,,,,,,,,,,,0.8,,,,,,4,288.5015,1,24,,,,,,,,,,,,,showatanabe,2024-06-28_14h01.11.437,demoExp_V2,2021.2.3,Win32,161.2903226,,,,,,,,,0.027335227,0.093252109,1,0,0,group_1/2138.mp4,-0.012027472,0.011402649,1,0,0,23,0,23,0,1,response1disk_2,center_square_2,,
,,,,,,,,,,,,,,,,,,,,,,,,,,,,,,,,,,,,,0.6,,,,,,-4,298.7872,1,25,,,,,,,,,,,,,showatanabe,2024-06-28_14h01.11.437,demoExp_V2,2021.2.3,Win32,161.2903226,,,,,,,,,-0.05388941,0.080756004,1,0,0,group_1/1292.mp4,-0.007029053,0.008903468,1,0,0,24,0,24,0,1,response7disk_2,center_square_2,,
,,,,,,,,,,,,,,,,,,,,,,,,,,,,,,,,,,,,,0.6,,,,,,-4,316.9387,1,26,,,,,,,,,,,,,showatanabe,2024-06-28_14h01.11.437,demoExp_V2,2021.2.3,Win32,161.2903226,,,,,,,,,-0.044517338,0.070759138,1,0,0,group_1/0283.mp4,-0.001405811,0.002030577,1,0,0,25,0,25,0,1,response7disk_2,center_square_2,,
,,,,,,,,,,,,,,,,,,,,,,,,,,,,,,,,,,,,,0.8,,,,,,4,324.4422,1,27,,,,,,,,,,,,,showatanabe,2024-06-28_14h01.11.437,demoExp_V2,2021.2.3,Win32,161.2903226,,,,,,,,,0.012339913,0.048890962,1,0,0,group_1/0927.mp4,0.002343018,-0.011090322,1,0,0,26,0,26,0,1,response1disk_2,center_square_2,,
,,,,,,,,,,,,,,,,,,,,,,,,,,,,,,,,,,,,,0.5,,,,,,-4,329.3387,1,28,,,,,,,,,,,,,showatanabe,2024-06-28_14h01.11.437,demoExp_V2,2021.2.3,Win32,161.2903226,,,,,,,,,-0.043892515,0.061387067,1,0,0,group_1/1791.mp4,-0.004529815,0.012027472,1,0,0,27,0,27,0,1,response7disk_2,center_square_2,,
,,,,,,,,,,,,,,,,,,,,,,,,,,,,,,,,,,,,,1,,,,,,-3,340.1632,1,29,,,,,,,,,,,,,showatanabe,2024-06-28_14h01.11.437,demoExp_V2,2021.2.3,Win32,161.2903226,,,,,,,,,-0.094501699,0.018275539,1,0,0,group_1/1292.mp4,-0.010153058,0.008903468,1,0,0,28,0,28,0,1,response7disk_2,center_square_2,,
,,,,,,,,,,,,,,,,,,,,,,,,,,,,,,,,,,,,,0.5,,,,,,3,347.1388,1,30,,,,,,,,,,,,,showatanabe,2024-06-28_14h01.11.437,demoExp_V2,2021.2.3,Win32,161.2903226,,,,,,,,,0.098562968,0.039518891,1,0,0,group_1/1768.mp4,0.007341494,0.003280225,1,0,0,29,0,29,0,1,response1disk_2,center_square_2,,
,,,,,,,,,,,,,,,,,,,,,,,,,,,,,,,,,,,,,1,,,,,,-4,354.4784,1,31,,,,,,,,,,,,,showatanabe,2024-06-28_14h01.11.437,demoExp_V2,2021.2.3,Win32,161.2903226,,,,,,,,,-0.022649134,0.075132761,1,0,0,group_1/0927.mp4,0.002967842,0.00765382,1,0,0,30,0,30,0,1,response7disk_2,center_square_2,,
,,,,,,,,,,,,,,,,,,,,,,,,,,,,,,,,,,,,,0.5,,,,,,-4,357.8539,1,32,,,,,,,,,,,,,showatanabe,2024-06-28_14h01.11.437,demoExp_V2,2021.2.3,Win32,161.2903226,,,,,,,,,-0.045766929,0.077631971,1,0,0,group_1/1375.mp4,-0.012027472,0.00640423,1,0,0,31,0,31,0,1,response7disk_2,center_square_2,,
,,,,,,,,,,,,,,,,,,,,,,,,,,,,,,,,,,,,,0.5,,,,,,4,368.1874,1,33,,,,,,,,,,,,,showatanabe,2024-06-28_14h01.11.437,demoExp_V2,2021.2.3,Win32,161.2903226,,,,,,,,,0.101062206,0.120743499,1,0,0,group_1/1292.mp4,0.011090322,0.011402649,1,0,0,32,0,32,0,1,response1disk_2,center_square_2,,
,,,,,,,,,,,,,,,,,,,,,,,,,,,,,,,,,,,,,1,,,,,,3,376.6236,1,34,,,,,,,,,,,,,showatanabe,2024-06-28_14h01.11.437,demoExp_V2,2021.2.3,Win32,161.2903226,,,,,,,,,0.06857234,0.025773196,1,0,0,group_1/1169.mp4,-0.001405811,0.003280225,1,0,0,33,0,33,0,1,response1disk_2,center_square_2,,
,,,,,,,,,,,,,,,,,,,,,,,,,,,,,,,,,,,,,0.9,,,,,,1,385.7632,1,35,,,,,,,,,,,,,showatanabe,2024-06-28_14h01.11.437,demoExp_V2,2021.2.3,Win32,161.2903226,,,,,,,,,0.024211222,-0.087316483,1,0,0,group_1/0927.mp4,0.007341494,-0.011090322,1,0,0,34,0,34,0,1,response3disk_2,center_square_2,,
,,,,,,,,,,,,,,,,,,,,,,,,,,,,,,,,,,,,,0.7,,,,,,-4,394.2358,1,36,,,,,,,,,,,,,showatanabe,2024-06-28_14h01.11.437,demoExp_V2,2021.2.3,Win32,161.2903226,,,,,,,,,-0.040143686,0.076382381,1,0,0,group_1/1703.mp4,-0.008903468,-0.006091846,1,0,0,35,0,35,0,1,response7disk_2,center_square_2,,
,,,,,,,,,,,,,,,,,,,,,,,,,,,,,,,,,,,,,0.6,,,,,,-2,398.6236,1,37,,,,,,,,,,,,,showatanabe,2024-06-28_14h01.11.437,demoExp_V2,2021.2.3,Win32,161.2903226,,,,,,,,,-0.104498594,-0.040456127,1,0,0,group_1/1169.mp4,-0.009528234,-0.003592665,1,0,0,36,0,36,0,1,response5disk_2,center_square_2,,
,,,,,,,,,,,,,,,,,,,,,,,,,,,,,,,,,,,,,0.6,,,,,,3,407.5752,1,38,,,,,,,,,,,,,showatanabe,2024-06-28_14h01.11.437,demoExp_V2,2021.2.3,Win32,161.2903226,,,,,,,,,0.136051253,0.041393305,1,0,0,group_1/0059.mp4,0.014214327,0.002655401,1,0,0,37,0,37,0,1,response1disk_2,center_square_2,,
,,,,,,,,,,,,,,,,,,,,,,,,,,,,,,,,,,,,,0.5,,,,,,-2,412.8844,1,39,,,,,,,,,,,,,showatanabe,2024-06-28_14h01.11.437,demoExp_V2,2021.2.3,Win32,161.2903226,,,,,,,,,-0.087628866,-0.017338332,1,0,0,group_1/1375.mp4,-0.004529815,-0.007341494,1,0,0,38,0,38,0,1,response5disk_2,center_square_2,,
,,,,,,,,,,,,,,,,,,,,,,,,,,,,,,,,,,,,,1,,,,,,-1,424.0297,1,40,,,,,,,,,,,,,showatanabe,2024-06-28_14h01.11.437,demoExp_V2,2021.2.3,Win32,161.2903226,,,,,,,,,-0.025148372,-0.075445173,1,0,0,group_1/2138.mp4,-0.004529815,-0.011715089,1,0,0,39,0,39,0,1,response5disk_2,center_square_2,,
,,,,,,,,,,,,,,,,,,,,,,,,,,,,,,,,,,,,,1,,,,,,-2,429.0177,1,41,,,,,,,,,,,,,showatanabe,2024-06-28_14h01.11.437,demoExp_V2,2021.2.3,Win32,161.2903226,,,,,,,,,-0.060137419,-0.027335227,1,0,0,group_1/1169.mp4,-0.013277063,-0.00546708,1,0,0,40,0,40,0,1,response5disk_2,center_square_2,,
,,,,,,,,,,,,,,,,,,,,,,,,,,,,,,,,,,,,,0.5,,,,,,1,447.1669,1,42,,,,,,,,,,,,,showatanabe,2024-06-28_14h01.11.437,demoExp_V2,2021.2.3,Win32,161.2903226,,,,,,,,,0.104186211,-0.12917842,1,0,0,group_1/0283.mp4,0.002343018,0.002655401,1,0,0,41,0,41,0,1,response3disk_2,center_square_2,,
,,,,,,,,,,,,,,,,,,,,,,,,,,,,,,,,,,,,,0.7,,,,,,-2,453.9135,1,43,,,,,,,,,,,,,showatanabe,2024-06-28_14h01.11.437,demoExp_V2,2021.2.3,Win32,161.2903226,,,,,,,,,-0.107622599,-0.064823512,1,0,0,group_1/1375.mp4,-0.002030577,0.002030577,1,0,0,42,0,42,0,1,response5disk_2,center_square_2,,
,,,,,,,,,,,,,,,,,,,,,,,,,,,,,,,,,,,,,0.7,,,,,,-4,462.6056,1,44,,,,,,,,,,,,,showatanabe,2024-06-28_14h01.11.437,demoExp_V2,2021.2.3,Win32,161.2903226,,,,,,,,,-0.008903468,0.082005623,1,0,0,group_1/1791.mp4,0.014214327,-0.002967842,1,0,0,43,0,43,0,1,response7disk_2,center_square_2,,
,,,,,,,,,,,,,,,,,,,,,,,,,,,,,,,,,,,,,0.5,,,,,,-3,467.9206,1,45,,,,,,,,,,,,,showatanabe,2024-06-28_14h01.11.437,demoExp_V2,2021.2.3,Win32,161.2903226,,,,,,,,,-0.087004042,0.046391753,1,0,0,group_1/1169.mp4,-0.001405811,0.002030577,1,0,0,44,0,44,0,1,response7disk_2,center_square_2,,
,,,,,,,,,,,,,,,,,,,,,,,,,,,,,,,,,,,,,1,,,,,,-2,477.1692,1,46,,,,,,,,,,,,,showatanabe,2024-06-28_14h01.11.437,demoExp_V2,2021.2.3,Win32,161.2903226,,,,,,,,,-0.051390171,-0.00671667,1,0,0,group_1/1768.mp4,-0.002030577,-0.002343018,1,0,0,45,0,45,0,1,response5disk_2,center_square_2,,
,,,,,,,,,,,,,,,,,,,,,,,,,,,,,,,,,,,,,0.9,,,,,,4,483.3934,1,47,,,,,,,,,,,,,showatanabe,2024-06-28_14h01.11.437,demoExp_V2,2021.2.3,Win32,161.2903226,,,,,,,,,0.086066892,0.120118703,1,0,0,group_1/1375.mp4,0.009840675,0.000780987,1,0,0,46,0,46,0,1,response1disk_2,center_square_2,,
,,,,,,,,,,,,,,,,,,,,,,,,,,,,,,,,,,,,,0.9,,,,,,3,491.4406,1,48,,,,,,,,,,,,,showatanabe,2024-06-28_14h01.11.437,demoExp_V2,2021.2.3,Win32,161.2903226,,,,,,,,,0.124179944,0.078256795,1,0,0,group_1/1703.mp4,0.001718251,0.013277063,1,0,0,47,0,47,0,1,response1disk_2,center_square_2,,
,,,,,,,,,,,,,,,,,,,,,,,,,,,,,,,,,,,,,1,,,,,,4,498.3268,1,49,,,,,,,,,,,,,showatanabe,2024-06-28_14h01.11.437,demoExp_V2,2021.2.3,Win32,161.2903226,,,,,,,,,0.016088741,0.113870665,1,0,0,group_1/1768.mp4,0.004842256,0.008278644,1,0,0,48,0,48,0,1,response1disk_2,center_square_2,,
,,,,,,,,,,,,,,,,,,,,,,,,,,,,,,,,,,,,,0.6,,,,,,-2,503.8358,1,50,,,,,,,,,,,,,showatanabe,2024-06-28_14h01.11.437,demoExp_V2,2021.2.3,Win32,161.2903226,,,,,,,,,-0.057013414,-0.015463918,1,0,0,group_1/0059.mp4,-0.000780987,-0.001093427,1,0,0,49,0,49,0,1,response5disk_2,center_square_2,,
,,,,,,,,,,,,,,,,,,,,,,,,,,,,,,,,,,,,,0.9,,,,,,-1,509.3873,1,51,,,,,,,,,,,,,showatanabe,2024-06-28_14h01.11.437,demoExp_V2,2021.2.3,Win32,161.2903226,,,,,,,,,-0.032646029,-0.052952202,1,0,0,group_1/1791.mp4,0.008591084,-0.000468604,1,0,0,50,0,50,0,1,response5disk_2,center_square_2,,
,,,,,,,,,,,,,,,,,,,,,,,,,,,,,,,,,,,,,0.9,,,,,,-2,517.7086,1,52,,,,,,,,,,,,,showatanabe,2024-06-28_14h01.11.437,demoExp_V2,2021.2.3,Win32,161.2903226,,,,,,,,,-0.125741918,-0.012339913,1,0,0,group_1/2138.mp4,-0.013277063,-0.006091846,1,0,0,51,0,51,0,1,response5disk_2,center_square_2,,
,,,,,,,,,,,,,,,,,,,,,,,,,,,,,,,,,,,,,1,,,,,,-2,527.1086,1,53,,,,,,,,,,,,,showatanabe,2024-06-28_14h01.11.437,demoExp_V2,2021.2.3,Win32,161.2903226,,,,,,,,,-0.063261481,-0.045454545,1,0,0,group_1/1768.mp4,-0.01452671,-0.016088741,1,0,0,52,0,52,0,1,response5disk_2,center_square_2,,
,,,,,,,,,,,,,,,,,,,,,,,,,,,,,,,,,,,,,0.6,,,,,,2,544.1337,1,54,,,,,,,,,,,,,showatanabe,2024-06-28_14h01.11.437,demoExp_V2,2021.2.3,Win32,161.2903226,,,,,,,,,0.089815721,-0.065448336,1,0,0,group_1/0283.mp4,-0.008278644,-0.008591084,1,0,0,53,0,53,0,1,response3disk_2,center_square_2,,
,,,,,,,,,,,,,,,,,,,,,,,,,,,,,,,,,,,,,0.8,,,,,,-1,548.4903,1,55,,,,,,,,,,,,,showatanabe,2024-06-28_14h01.11.437,demoExp_V2,2021.2.3,Win32,161.2903226,,,,,,,,,-0.052639762,-0.08169324,1,0,0,group_1/1791.mp4,-0.012652296,-0.000468604,1,0,0,54,0,54,0,1,response5disk_2,center_square_2,,
,,,,,,,,,,,,,,,,,,,,,,,,,,,,,,,,,,,,,0.5,,,,,,-3,556.7442,1,56,,,,,,,,,,,,,showatanabe,2024-06-28_14h01.11.437,demoExp_V2,2021.2.3,Win32,161.2903226,,,,,,,,,-0.123242737,0.010153058,1,0,0,group_1/1703.mp4,-0.010777882,0.007029053,1,0,0,55,0,55,0,1,response7disk_2,center_square_2,,
,,,,,,,,,,,,,,,,,,,,,,,,,,,,,,,,,,,,,0.7,,,,,,-3,575.3389,1,57,,,,,,,,,,,,,showatanabe,2024-06-28_14h01.11.437,demoExp_V2,2021.2.3,Win32,161.2903226,,,,,,,,,-0.075757557,0.042642924,1,0,0,group_1/0283.mp4,-0.001405811,0.005154639,1,0,0,56,0,56,0,1,response7disk_2,center_square_2,,
,,,,,,,,,,,,,,,,,,,,,,,,,,,,,,,,,,,,,0.9,,,,,,2,579.9571,1,58,,,,,,,,,,,,,showatanabe,2024-06-28_14h01.11.437,demoExp_V2,2021.2.3,Win32,161.2903226,,,,,,,,,0.13042801,-0.073570759,1,0,0,group_1/0059.mp4,0.000468604,-0.006091846,1,0,0,57,0,57,0,1,response3disk_2,center_square_2,,
,,,,,,,,,,,,,,,,,,,,,,,,,,,,,,,,,,,,,0.9,,,,,,3,589.3821,1,59,,,,,,,,,,,,,showatanabe,2024-06-28_14h01.11.437,demoExp_V2,2021.2.3,Win32,161.2903226,,,,,,,,,0.110434277,0.044517338,1,0,0,group_1/2138.mp4,-0.003280225,0.00640423,1,0,0,58,0,58,0,1,response1disk_2,center_square_2,,
,,,,,,,,,,,,,,,,,,,,,,,,,,,,,,,,,,,,,0.9,,,,,,-4,597.5631,1,60,,,,,,,,,,,,,showatanabe,2024-06-28_14h01.11.437,demoExp_V2,2021.2.3,Win32,161.2903226,,,,,,,,,-0.038269272,0.068884724,1,0,0,group_1/1703.mp4,-0.003280225,0.00765382,1,0,0,59,0,59,0,1,response7disk_2,center_square_2,,
,,,,,,,,,,,,,,,,,,,,,,,,,,,,,,,,,,,,,0.5,,,,,,-3,602.115,1,61,,,,,,,,,,,,,showatanabe,2024-06-28_14h01.11.437,demoExp_V2,2021.2.3,Win32,161.2903226,,,,,,,,,-0.098250528,0.024523577,1,0,0,group_1/0059.mp4,0.004842256,-0.001093427,1,0,0,60,0,60,0,1,response7disk_2,center_square_2,,
,,,,,,,,,,,,,,,,,,,,,,,,,,,,,,,,,,,,,0.7,,,,,,2,610.1994,1,62,,,,,,,,,,,,,showatanabe,2024-06-28_14h01.11.437,demoExp_V2,2021.2.3,Win32,161.2903226,,,,,,,,,0.131677601,-0.035457708,1,0,0,group_1/2138.mp4,-0.000780987,-0.00546708,1,0,0,61,0,61,0,1,response3disk_2,center_square_2,,
,,,,,,,,,,,,,,,,,,,,,,,,,,,,,,,,,,,,,0.5,,,,,,3,629.5936,1,63,,,,,,,,,,,,,showatanabe,2024-06-28_14h01.11.437,demoExp_V2,2021.2.3,Win32,161.2903226,,,,,,,,,0.136676077,0.062011862,1,0,0,group_1/0283.mp4,-0.010777882,0.004529815,1,0,0,62,0,62,0,1,response1disk_2,center_square_2,,
,,,,,,,,,,,,,,,,,,,,,,,,,,,,,,,,,,,,,0.9,,,,,,-2,634.83,1,64,,,,,,,,,,,,,showatanabe,2024-06-28_14h01.11.437,demoExp_V2,2021.2.3,Win32,161.2903226,,,,,,,,,-0.083255214,-0.031084055,1,0,0,group_1/1791.mp4,0.00546708,-0.009840675,1,0,0,63,0,63,0,1,response5disk_2,center_square_2,,
,,,,,,,,,,,,,,,,,,,,,,,,,,,,,,,,,,,,,0.9,,,,,,-3,643.8298,1,65,,,,,,,,,,,,,showatanabe,2024-06-28_14h01.11.437,demoExp_V2,2021.2.3,Win32,161.2903226,,,,,,,,,-0.064511071,0.040143686,1,0,0,group_1/1768.mp4,-0.003280225,-0.007341494,1,0,0,64,0,64,0,1,response7disk_2,center_square_2,,
,,,,,,,,,,,,,,,,,,,,,,,,,,,,,,,,,,,,,1,,,,,,4,649.7934,1,66,,,,,,,,,,,,,showatanabe,2024-06-28_14h01.11.437,demoExp_V2,2021.2.3,Win32,161.2903226,,,,,,,,,0.03295847,0.060137448,1,0,0,group_1/1375.mp4,0.010465499,0.005779406,1,0,0,65,0,65,0,1,response1disk_2,center_square_2,,
,,,,,,,,,,,,,,,,,,,,,,,,,,,,,,,,,,,,,0.5,,,,,,1,655.2176,1,67,,,,,,,,,,,,,showatanabe,2024-06-28_14h01.11.437,demoExp_V2,2021.2.3,Win32,161.2903226,,,,,,,,,0.060449859,-0.089190897,1,0,0,group_1/1169.mp4,0.00671667,0.003904992,1,0,0,66,0,66,0,1,response3disk_2,center_square_2,,
,,,,,,,,,,,,,,,,,,,,,,,,,,,,,,,,,,,,,1,,,,,,2,662.5146,1,68,,,,,,,,,,,,,showatanabe,2024-06-28_14h01.11.437,demoExp_V2,2021.2.3,Win32,161.2903226,,,,,,,,,0.172914714,-0.056701031,1,0,0,group_1/0927.mp4,-0.010153058,0.001405811,1,0,0,67,0,67,0,1,response3disk_2,center_square_2,,
,,,,,,,,,,,,,,,,,,,,,,,,,,,,,,,,,,,,,1,,,,,,-3,677.7209,1,69,,,,,,,,,,,,,showatanabe,2024-06-28_14h01.11.437,demoExp_V2,2021.2.3,Win32,161.2903226,,,,,,,,,-0.088878456,0.015151477,1,0,0,group_1/1292.mp4,0.008591084,0.003904992,1,0,0,68,0,68,0,1,response7disk_2,center_square_2,,
,,,,,,,,,,,,,,,,,,,,,,,,,,,,,,,,,,,,,0.7,,,,,,-3,685.7377,1,70,,,,,,,,,,,,,showatanabe,2024-06-28_14h01.11.437,demoExp_V2,2021.2.3,Win32,161.2903226,,,,,,,,,-0.052014995,0.019525129,1,0,0,group_1/1158.mp4,-0.001405811,-0.008591084,1,0,0,69,0,69,0,1,response7disk_2,center_square_2,,
,,,,,,,,,,,,,,,,,,,,,,,,,,,,,,,,,,,,,0.6,,,,,,-3,694.0661,1,71,,,,,,,,,,,,,showatanabe,2024-06-28_14h01.11.437,demoExp_V2,2021.2.3,Win32,161.2903226,,,,,,,,,-0.058263005,0.025148372,1,0,0,group_1/1703.mp4,-0.012652296,0.003280225,1,0,0,70,0,70,0,1,response7disk_2,center_square_2,,
,,,,,,,,,,,,,,,,,,,,,,,,,,,,,,,,,,,,,,,,,,,,,,,,,,,,,,,,,,,showatanabe,2024-06-28_14h01.11.437,demoExp_V2,2021.2.3,Win32,161.2903226,,,,,,,,,,,,,,,,,,,,,,,,,,,space,2.1443
