sequence,mouse.x,mouse.y,mouse.leftButton,mouse.midButton,mouse.rightButton,mouse.clicked_name,mouse_2.x,mouse_2.y,mouse_2.leftButton,mouse_2.midButton,mouse_2.rightButton,mouse_2.clicked_name,mouse_12.x,mouse_12.y,mouse_12.leftButton,mouse_12.midButton,mouse_12.rightButton,mouse_12.clicked_name,mouse_3.x,mouse_3.y,mouse_3.leftButton,mouse_3.midButton,mouse_3.rightButton,mouse_3.clicked_name,mouse_11.x,mouse_11.y,mouse_11.leftButton,mouse_11.midButton,mouse_11.rightButton,mouse_11.clicked_name,mouse_8.x,mouse_8.y,mouse_8.leftButton,mouse_8.midButton,mouse_8.rightButton,mouse_8.clicked_name,cross_time[0],mouse_5.x,mouse_5.y,mouse_5.leftButton,mouse_5.midButton,mouse_5.rightButton,similarity,response_time,Pass,trialNumber,mouse_7.x,mouse_7.y,mouse_7.leftButton,mouse_7.midButton,mouse_7.rightButton,prac_trials.thisRepN,prac_trials.thisTrialN,prac_trials.thisN,prac_trials.thisIndex,prac_trials.ran,video_file,video_id,Prolific_ID*,date,expName,psychopyVersion,OS,frameRate,mouse_5.clicked_name,mouse_7.clicked_name,mouse_4.x,mouse_4.y,mouse_4.leftButton,mouse_4.midButton,mouse_4.rightButton,mouse_4.clicked_name,mouse_9.x,mouse_9.y,mouse_9.leftButton,mouse_9.midButton,mouse_9.rightButton,this_video,mouse_6.x,mouse_6.y,mouse_6.leftButton,mouse_6.midButton,mouse_6.rightButton,Experiment.thisRepN,Experiment.thisTrialN,Experiment.thisN,Experiment.thisIndex,Experiment.ran,mouse_9.clicked_name,mouse_6.clicked_name,key_resp.keys,key_resp.rt
"[""group_1/1703.mp4"",""group_1/1158.mp4"",""group_1/1169.mp4"",""group_1/1703.mp4"",""group_1/1292.mp4"",""group_1/1158.mp4"",""group_1/2138.mp4"",""group_1/1791.mp4"",""group_1/1158.mp4"",""group_1/1768.mp4"",""group_1/1703.mp4"",""group_1/0059.mp4"",""group_1/1158.mp4"",""group_1/1375.mp4"",""group_1/1703.mp4"",""group_1/1071.mp4"",""group_1/1158.mp4"",""group_1/0927.mp4"",""group_1/1703.mp4"",""group_1/0283.mp4"",""group_1/1169.mp4"",""group_1/0927.mp4"",""group_1/1292.mp4"",""group_1/1071.mp4"",""group_1/1169.mp4"",""group_1/1375.mp4"",""group_1/1292.mp4"",""group_1/0059.mp4"",""group_1/1169.mp4"",""group_1/1768.mp4"",""group_1/1292.mp4"",""group_1/1791.mp4"",""group_1/1169.mp4"",""group_1/2138.mp4"",""group_1/1292.mp4"",""group_1/0283.mp4"",""group_1/2138.mp4"",""group_1/0927.mp4"",""group_1/1791.mp4"",""group_1/1071.mp4"",""group_1/2138.mp4"",""group_1/1375.mp4"",""group_1/1791.mp4"",""group_1/0059.mp4"",""group_1/2138.mp4"",""group_1/1768.mp4"",""group_1/1791.mp4"",""group_1/0283.mp4"",""group_1/1768.mp4"",""group_1/0927.mp4"",""group_1/0059.mp4"",""group_1/1071.mp4"",""group_1/1768.mp4"",""group_1/1375.mp4"",""group_1/0059.mp4"",""group_1/0283.mp4"",""group_1/1375.mp4"",""group_1/0927.mp4"",""group_1/1071.mp4"",""group_1/0283.mp4"",""group_1/0927.mp4"",""group_1/1071.mp4"",""group_1/1375.mp4"",""group_1/0059.mp4"",""group_1/1768.mp4"",""group_1/1791.mp4"",""group_1/2138.mp4"",""group_1/1292.mp4"",""group_1/1169.mp4"",""group_1/1158.mp4"",""group_1/0283.mp4""]",0.031111111,-0.445555556,1,0,0,image,0.03,-0.435555556,1,0,0,image_2,0.023333333,-0.371111111,1,0,0,image,-0.015555556,-0.366666667,1,0,0,image,0.07,-0.415555556,1,0,0,image,0.007777778,0,1,0,0,center_square_3,0.6,0.052222222,-0.001111111,0,0,0,2,110.411,1,1,0.052222222,-0.001111111,0,0,0,0,0,0,0,1,videos/0001.mp4,1,niwayamakodai,2024-06-26_21h07.36.403,demoExp_V2,2021.2.3,MacIntel,30.3030303,,,,,,,,,,,,,,,,,,,,,,,,,,,,
,,,,,,,,,,,,,,,,,,,,,,,,,,,,,,,,,,,,,1,0.123333333,0.081111111,1,0,0,3,114.533,1,2,-0.003333333,-0.003333333,1,0,0,0,1,1,1,1,videos/0002.mp4,2,niwayamakodai,2024-06-26_21h07.36.403,demoExp_V2,2021.2.3,MacIntel,30.3030303,response1disk,center_square,,,,,,,,,,,,,,,,,,,,,,,,,,
,,,,,,,,,,,,,,,,,,,,,,,,,,,,,,,,,,,,,0.6,-0.077777778,-0.054444444,1,0,0,-2,129.366,1,3,0.007777778,0,1,0,0,0,2,2,2,1,videos/0003.mp4,3,niwayamakodai,2024-06-26_21h07.36.403,demoExp_V2,2021.2.3,MacIntel,30.3030303,response5disk,center_square,,,,,,,,,,,,,,,,,,,,,,,,,,
,,,,,,,,,,,,,,,,,,,,,,,,,,,,,,,,,,,,,1,0.086666667,-0.068888889,1,0,0,2,139.799,1,4,0.008888889,-0.008888889,1,0,0,0,3,3,3,1,videos/0004.mp4,4,niwayamakodai,2024-06-26_21h07.36.403,demoExp_V2,2021.2.3,MacIntel,30.3030303,response3disk,center_square,,,,,,,,,,,,,,,,,,,,,,,,,,
,,,,,,,,,,,,,,,,,,,,,,,,,,,,,,,,,,,,,0.5,-0.081111111,0.034444444,1,0,0,-3,146.567,1,5,0.001111111,-0.01,1,0,0,0,4,4,4,1,videos/0005.mp4,5,niwayamakodai,2024-06-26_21h07.36.403,demoExp_V2,2021.2.3,MacIntel,30.3030303,response7disk,center_square,,,,,,,,,,,,,,,,,,,,,,,,,,
,,,,,,,,,,,,,,,,,,,,,,,,,,,,,,,,,,,,,0.5,-0.097777778,0.075555556,1,0,0,-3,159.133,1,6,0.01,-0.008888889,1,0,0,0,5,5,5,1,videos/0006.mp4,6,niwayamakodai,2024-06-26_21h07.36.403,demoExp_V2,2021.2.3,MacIntel,30.3030303,response7disk,center_square,,,,,,,,,,,,,,,,,,,,,,,,,,
,,,,,,,,,,,,,,,,,,,,,,,,,,,,,,,0.004444444,-0.006666667,1,0,0,center_square_3,0.7,,,,,,1,182.844,1,1,,,,,,,,,,,,,niwayamakodai,2024-06-26_21h07.36.403,demoExp_V2,2021.2.3,MacIntel,30.3030303,,,-0.042222222,-0.408888889,1,0,0,image,0.004444444,-0.006666667,0,0,0,group_1/1703.mp4,0.004444444,-0.006666667,0,0,0,0,0,0,0,1,,,,
,,,,,,,,,,,,,,,,,,,,,,,,,,,,,,,,,,,,,0.5,,,,,,1,192.666,1,2,,,,,,,,,,,,,niwayamakodai,2024-06-26_21h07.36.403,demoExp_V2,2021.2.3,MacIntel,30.3030303,,,,,,,,,0.045555556,-0.15,1,0,0,group_1/1158.mp4,0.002222222,0,1,0,0,1,0,1,0,1,response3disk_2,center_square_2,,
,,,,,,,,,,,,,,,,,,,,,,,,,,,,,,,,,,,,,0.9,,,,,,1,198.3,1,3,,,,,,,,,,,,,niwayamakodai,2024-06-26_21h07.36.403,demoExp_V2,2021.2.3,MacIntel,30.3030303,,,,,,,,,0.036666667,-0.112222222,1,0,0,group_1/1169.mp4,-0.013333333,-0.007777778,1,0,0,2,0,2,0,1,response3disk_2,center_square_2,,
,,,,,,,,,,,,,,,,,,,,,,,,,,,,,,,,,,,,,0.6,,,,,,1,206.835,1,4,,,,,,,,,,,,,niwayamakodai,2024-06-26_21h07.36.403,demoExp_V2,2021.2.3,MacIntel,30.3030303,,,,,,,,,0.03,-0.074444444,1,0,0,group_1/1703.mp4,0.004444444,-0.007777778,1,0,0,3,0,3,0,1,response3disk_2,center_square_2,,
,,,,,,,,,,,,,,,,,,,,,,,,,,,,,,,,,,,,,0.6,,,,,,2,211.601,1,5,,,,,,,,,,,,,niwayamakodai,2024-06-26_21h07.36.403,demoExp_V2,2021.2.3,MacIntel,30.3030303,,,,,,,,,0.088888889,-0.044444444,1,0,0,group_1/1292.mp4,0.011111111,-0.007777778,1,0,0,4,0,4,0,1,response3disk_2,center_square_2,,
,,,,,,,,,,,,,,,,,,,,,,,,,,,,,,,,,,,,,1,,,,,,-1,220.934,1,6,,,,,,,,,,,,,niwayamakodai,2024-06-26_21h07.36.403,demoExp_V2,2021.2.3,MacIntel,30.3030303,,,,,,,,,-0.031111111,-0.083333333,1,0,0,group_1/1158.mp4,0.003333333,0.016666667,1,0,0,5,0,5,0,1,response5disk_2,center_square_2,,
,,,,,,,,,,,,,,,,,,,,,,,,,,,,,,,,,,,,,1,,,,,,1,229.701,1,7,,,,,,,,,,,,,niwayamakodai,2024-06-26_21h07.36.403,demoExp_V2,2021.2.3,MacIntel,30.3030303,,,,,,,,,0.03,-0.106666667,1,0,0,group_1/2138.mp4,-0.002222222,-0.005555556,1,0,0,6,0,6,0,1,response3disk_2,center_square_2,,
,,,,,,,,,,,,,,,,,,,,,,,,,,,,,,,,,,,,,1,,,,,,-3,234.501,1,8,,,,,,,,,,,,,niwayamakodai,2024-06-26_21h07.36.403,demoExp_V2,2021.2.3,MacIntel,30.3030303,,,,,,,,,-0.133333333,0.054444444,1,0,0,group_1/1791.mp4,-0.001111111,0.004444444,1,0,0,7,0,7,0,1,response7disk_2,center_square_2,,
,,,,,,,,,,,,,,,,,,,,,,,,,,,,,,,,,,,,,0.5,,,,,,-4,242.201,1,9,,,,,,,,,,,,,niwayamakodai,2024-06-26_21h07.36.403,demoExp_V2,2021.2.3,MacIntel,30.3030303,,,,,,,,,-0.094444444,0.204444444,1,0,0,group_1/1158.mp4,-0.008888889,-0.006666667,1,0,0,8,0,8,0,1,response7disk_2,center_square_2,,
,,,,,,,,,,,,,,,,,,,,,,,,,,,,,,,,,,,,,0.8,,,,,,-3,247.701,1,10,,,,,,,,,,,,,niwayamakodai,2024-06-26_21h07.36.403,demoExp_V2,2021.2.3,MacIntel,30.3030303,,,,,,,,,-0.067777778,0.016666667,1,0,0,group_1/1768.mp4,0.014444444,-0.016666667,1,0,0,9,0,9,0,1,response7disk_2,center_square_2,,
,,,,,,,,,,,,,,,,,,,,,,,,,,,,,,,,,,,,,1,,,,,,2,255.935,1,11,,,,,,,,,,,,,niwayamakodai,2024-06-26_21h07.36.403,demoExp_V2,2021.2.3,MacIntel,30.3030303,,,,,,,,,0.135555556,-0.073333333,1,0,0,group_1/1703.mp4,-0.001111111,0.005555556,1,0,0,10,0,10,0,1,response3disk_2,center_square_2,,
,,,,,,,,,,,,,,,,,,,,,,,,,,,,,,,,,,,,,0.8,,,,,,1,261.302,1,12,,,,,,,,,,,,,niwayamakodai,2024-06-26_21h07.36.403,demoExp_V2,2021.2.3,MacIntel,30.3030303,,,,,,,,,0.048888889,-0.073333333,1,0,0,group_1/0059.mp4,-0.001111111,-0.008888889,1,0,0,11,0,11,0,1,response3disk_2,center_square_2,,
,,,,,,,,,,,,,,,,,,,,,,,,,,,,,,,,,,,,,1,,,,,,-2,268.501,1,13,,,,,,,,,,,,,niwayamakodai,2024-06-26_21h07.36.403,demoExp_V2,2021.2.3,MacIntel,30.3030303,,,,,,,,,-0.112222222,-0.066666667,1,0,0,group_1/1158.mp4,0.004444444,-0.006666667,1,0,0,12,0,12,0,1,response5disk_2,center_square_2,,
,,,,,,,,,,,,,,,,,,,,,,,,,,,,,,,,,,,,,0.9,,,,,,1,273.068,1,14,,,,,,,,,,,,,niwayamakodai,2024-06-26_21h07.36.403,demoExp_V2,2021.2.3,MacIntel,30.3030303,,,,,,,,,0.025555556,-0.101111111,1,0,0,group_1/1375.mp4,0.004444444,-0.007777778,1,0,0,13,0,13,0,1,response3disk_2,center_square_2,,
,,,,,,,,,,,,,,,,,,,,,,,,,,,,,,,,,,,,,1,,,,,,-2,280.401,1,15,,,,,,,,,,,,,niwayamakodai,2024-06-26_21h07.36.403,demoExp_V2,2021.2.3,MacIntel,30.3030303,,,,,,,,,-0.107777778,-0.058888889,1,0,0,group_1/1703.mp4,-0.005555556,0.004444444,1,0,0,14,0,14,0,1,response5disk_2,center_square_2,,
,,,,,,,,,,,,,,,,,,,,,,,,,,,,,,,,,,,,,0.5,,,,,,2,284.702,1,16,,,,,,,,,,,,,niwayamakodai,2024-06-26_21h07.36.403,demoExp_V2,2021.2.3,MacIntel,30.3030303,,,,,,,,,0.076666667,-0.014444444,1,0,0,group_1/1071.mp4,0.001111111,-0.012222222,1,0,0,15,0,15,0,1,response3disk_2,center_square_2,,
,,,,,,,,,,,,,,,,,,,,,,,,,,,,,,,,,,,,,0.8,,,,,,-1,288.869,1,17,,,,,,,,,,,,,niwayamakodai,2024-06-26_21h07.36.403,demoExp_V2,2021.2.3,MacIntel,30.3030303,,,,,,,,,-0.034444444,-0.054444444,1,0,0,group_1/1158.mp4,-0.006666667,-0.01,1,0,0,16,0,16,0,1,response5disk_2,center_square_2,,
,,,,,,,,,,,,,,,,,,,,,,,,,,,,,,,,,,,,,0.9,,,,,,-1,293.101,1,18,,,,,,,,,,,,,niwayamakodai,2024-06-26_21h07.36.403,demoExp_V2,2021.2.3,MacIntel,30.3030303,,,,,,,,,-0.018888889,-0.044444444,1,0,0,group_1/0927.mp4,-0.012222222,-0.002222222,1,0,0,17,0,17,0,1,response5disk_2,center_square_2,,
,,,,,,,,,,,,,,,,,,,,,,,,,,,,,,,,,,,,,0.8,,,,,,-4,299.002,1,19,,,,,,,,,,,,,niwayamakodai,2024-06-26_21h07.36.403,demoExp_V2,2021.2.3,MacIntel,30.3030303,,,,,,,,,-0.016666667,0.1,1,0,0,group_1/1703.mp4,0.016666667,-0.01,1,0,0,18,0,18,0,1,response7disk_2,center_square_2,,
,,,,,,,,,,,,,,,,,,,,,,,,,,,,,,,,,,,,,0.9,,,,,,-3,306.868,1,20,,,,,,,,,,,,,niwayamakodai,2024-06-26_21h07.36.403,demoExp_V2,2021.2.3,MacIntel,30.3030303,,,,,,,,,-0.095555556,0.007777778,1,0,0,group_1/0283.mp4,-0.015555556,-0.012222222,1,0,0,19,0,19,0,1,response7disk_2,center_square_2,,
,,,,,,,,,,,,,,,,,,,,,,,,,,,,,,,,,,,,,0.8,,,,,,-3,311.635,1,21,,,,,,,,,,,,,niwayamakodai,2024-06-26_21h07.36.403,demoExp_V2,2021.2.3,MacIntel,30.3030303,,,,,,,,,-0.117777778,0.035555556,1,0,0,group_1/1169.mp4,0.006666667,-0.013333333,1,0,0,20,0,20,0,1,response7disk_2,center_square_2,,
,,,,,,,,,,,,,,,,,,,,,,,,,,,,,,,,,,,,,0.6,,,,,,-4,315.236,1,22,,,,,,,,,,,,,niwayamakodai,2024-06-26_21h07.36.403,demoExp_V2,2021.2.3,MacIntel,30.3030303,,,,,,,,,-0.066666667,0.133333333,1,0,0,group_1/0927.mp4,0.01,-0.013333333,1,0,0,21,0,21,0,1,response7disk_2,center_square_2,,
,,,,,,,,,,,,,,,,,,,,,,,,,,,,,,,,,,,,,1,,,,,,-2,319.369,1,23,,,,,,,,,,,,,niwayamakodai,2024-06-26_21h07.36.403,demoExp_V2,2021.2.3,MacIntel,30.3030303,,,,,,,,,-0.071111111,-0.021111111,1,0,0,group_1/1292.mp4,-0.003333333,-0.01,1,0,0,22,0,22,0,1,response5disk_2,center_square_2,,
,,,,,,,,,,,,,,,,,,,,,,,,,,,,,,,,,,,,,0.8,,,,,,3,323.335,1,24,,,,,,,,,,,,,niwayamakodai,2024-06-26_21h07.36.403,demoExp_V2,2021.2.3,MacIntel,30.3030303,,,,,,,,,0.092222222,0.001111111,1,0,0,group_1/1071.mp4,0,-0.011111111,1,0,0,23,0,23,0,1,response1disk_2,center_square_2,,
,,,,,,,,,,,,,,,,,,,,,,,,,,,,,,,,,,,,,1,,,,,,2,329.903,1,25,,,,,,,,,,,,,niwayamakodai,2024-06-26_21h07.36.403,demoExp_V2,2021.2.3,MacIntel,30.3030303,,,,,,,,,0.052222222,-0.037777778,1,0,0,group_1/1169.mp4,0.007777778,0.008888889,1,0,0,24,0,24,0,1,response3disk_2,center_square_2,,
,,,,,,,,,,,,,,,,,,,,,,,,,,,,,,,,,,,,,0.7,,,,,,1,334.836,1,26,,,,,,,,,,,,,niwayamakodai,2024-06-26_21h07.36.403,demoExp_V2,2021.2.3,MacIntel,30.3030303,,,,,,,,,0.025555556,-0.072222222,1,0,0,group_1/1375.mp4,0.013333333,-0.016666667,1,0,0,25,0,25,0,1,response3disk_2,center_square_2,,
,,,,,,,,,,,,,,,,,,,,,,,,,,,,,,,,,,,,,0.8,,,,,,2,339.937,1,27,,,,,,,,,,,,,niwayamakodai,2024-06-26_21h07.36.403,demoExp_V2,2021.2.3,MacIntel,30.3030303,,,,,,,,,0.065555556,-0.016666667,1,0,0,group_1/1292.mp4,0.013333333,-0.015555556,1,0,0,26,0,26,0,1,response3disk_2,center_square_2,,
,,,,,,,,,,,,,,,,,,,,,,,,,,,,,,,,,,,,,0.8,,,,,,3,344.003,1,28,,,,,,,,,,,,,niwayamakodai,2024-06-26_21h07.36.403,demoExp_V2,2021.2.3,MacIntel,30.3030303,,,,,,,,,0.147777778,0.048888889,1,0,0,group_1/0059.mp4,-0.012222222,-0.012222222,1,0,0,27,0,27,0,1,response1disk_2,center_square_2,,
,,,,,,,,,,,,,,,,,,,,,,,,,,,,,,,,,,,,,0.8,,,,,,1,350.103,1,29,,,,,,,,,,,,,niwayamakodai,2024-06-26_21h07.36.403,demoExp_V2,2021.2.3,MacIntel,30.3030303,,,,,,,,,0.033333333,-0.066666667,1,0,0,group_1/1169.mp4,0.016666667,-0.014444444,1,0,0,28,0,28,0,1,response3disk_2,center_square_2,,
,,,,,,,,,,,,,,,,,,,,,,,,,,,,,,,,,,,,,0.7,,,,,,1,354.536,1,30,,,,,,,,,,,,,niwayamakodai,2024-06-26_21h07.36.403,demoExp_V2,2021.2.3,MacIntel,30.3030303,,,,,,,,,0.028888889,-0.045555556,1,0,0,group_1/1768.mp4,0.011111111,-0.012222222,1,0,0,29,0,29,0,1,response3disk_2,center_square_2,,
,,,,,,,,,,,,,,,,,,,,,,,,,,,,,,,,,,,,,1,,,,,,3,358.936,1,31,,,,,,,,,,,,,niwayamakodai,2024-06-26_21h07.36.403,demoExp_V2,2021.2.3,MacIntel,30.3030303,,,,,,,,,0.145555556,0.072222222,1,0,0,group_1/1292.mp4,0.016666667,-0.008888889,1,0,0,30,0,30,0,1,response1disk_2,center_square_2,,
,,,,,,,,,,,,,,,,,,,,,,,,,,,,,,,,,,,,,0.5,,,,,,-3,362.603,1,32,,,,,,,,,,,,,niwayamakodai,2024-06-26_21h07.36.403,demoExp_V2,2021.2.3,MacIntel,30.3030303,,,,,,,,,-0.072222222,0.031111111,1,0,0,group_1/1791.mp4,0.004444444,-0.01,1,0,0,31,0,31,0,1,response7disk_2,center_square_2,,
,,,,,,,,,,,,,,,,,,,,,,,,,,,,,,,,,,,,,1,,,,,,-3,366.703,1,33,,,,,,,,,,,,,niwayamakodai,2024-06-26_21h07.36.403,demoExp_V2,2021.2.3,MacIntel,30.3030303,,,,,,,,,-0.045555556,0.014444444,1,0,0,group_1/1169.mp4,-0.005555556,0.008888889,1,0,0,32,0,32,0,1,response7disk_2,center_square_2,,
,,,,,,,,,,,,,,,,,,,,,,,,,,,,,,,,,,,,,0.8,,,,,,2,370.604,1,34,,,,,,,,,,,,,niwayamakodai,2024-06-26_21h07.36.403,demoExp_V2,2021.2.3,MacIntel,30.3030303,,,,,,,,,0.07,-0.067777778,1,0,0,group_1/2138.mp4,0.007777778,-0.012222222,1,0,0,33,0,33,0,1,response3disk_2,center_square_2,,
,,,,,,,,,,,,,,,,,,,,,,,,,,,,,,,,,,,,,0.6,,,,,,2,375.27,1,35,,,,,,,,,,,,,niwayamakodai,2024-06-26_21h07.36.403,demoExp_V2,2021.2.3,MacIntel,30.3030303,,,,,,,,,0.042222222,-0.013333333,1,0,0,group_1/1292.mp4,-0.002222222,-0.013333333,1,0,0,34,0,34,0,1,response3disk_2,center_square_2,,
,,,,,,,,,,,,,,,,,,,,,,,,,,,,,,,,,,,,,0.8,,,,,,4,380.47,1,36,,,,,,,,,,,,,niwayamakodai,2024-06-26_21h07.36.403,demoExp_V2,2021.2.3,MacIntel,30.3030303,,,,,,,,,0.032222222,0.148888889,1,0,0,group_1/0283.mp4,-0.006666667,-0.006666667,1,0,0,35,0,35,0,1,response1disk_2,center_square_2,,
,,,,,,,,,,,,,,,,,,,,,,,,,,,,,,,,,,,,,1,,,,,,-3,384.903,1,37,,,,,,,,,,,,,niwayamakodai,2024-06-26_21h07.36.403,demoExp_V2,2021.2.3,MacIntel,30.3030303,,,,,,,,,-0.025555556,0.004444444,1,0,0,group_1/2138.mp4,0.004444444,0.003333333,1,0,0,36,0,36,0,1,response7disk_2,center_square_2,,
,,,,,,,,,,,,,,,,,,,,,,,,,,,,,,,,,,,,,0.8,,,,,,1,389.204,1,38,,,,,,,,,,,,,niwayamakodai,2024-06-26_21h07.36.403,demoExp_V2,2021.2.3,MacIntel,30.3030303,,,,,,,,,0.016666667,-0.061111111,1,0,0,group_1/0927.mp4,0.002222222,0.016666667,1,0,0,37,0,37,0,1,response3disk_2,center_square_2,,
,,,,,,,,,,,,,,,,,,,,,,,,,,,,,,,,,,,,,0.8,,,,,,-3,408.438,1,39,,,,,,,,,,,,,niwayamakodai,2024-06-26_21h07.36.403,demoExp_V2,2021.2.3,MacIntel,30.3030303,,,,,,,,,-0.148888889,0.1,1,0,0,group_1/1791.mp4,-0.007777778,-0.006666667,1,0,0,38,0,38,0,1,response7disk_2,center_square_2,,
,,,,,,,,,,,,,,,,,,,,,,,,,,,,,,,,,,,,,0.8,,,,,,-3,416.17,1,40,,,,,,,,,,,,,niwayamakodai,2024-06-26_21h07.36.403,demoExp_V2,2021.2.3,MacIntel,30.3030303,,,,,,,,,-0.164444444,0.074444444,1,0,0,group_1/1071.mp4,-0.003333333,0.003333333,1,0,0,39,0,39,0,1,response7disk_2,center_square_2,,
,,,,,,,,,,,,,,,,,,,,,,,,,,,,,,,,,,,,,1,,,,,,-3,422.97,1,41,,,,,,,,,,,,,niwayamakodai,2024-06-26_21h07.36.403,demoExp_V2,2021.2.3,MacIntel,30.3030303,,,,,,,,,-0.071111111,0.025555556,1,0,0,group_1/2138.mp4,-0.003333333,-0.007777778,1,0,0,40,0,40,0,1,response7disk_2,center_square_2,,
,,,,,,,,,,,,,,,,,,,,,,,,,,,,,,,,,,,,,0.5,,,,,,3,425.536,1,42,,,,,,,,,,,,,niwayamakodai,2024-06-26_21h07.36.403,demoExp_V2,2021.2.3,MacIntel,30.3030303,,,,,,,,,0.097777778,0.025555556,1,0,0,group_1/1375.mp4,-0.011111111,-0.001111111,1,0,0,41,0,41,0,1,response1disk_2,center_square_2,,
,,,,,,,,,,,,,,,,,,,,,,,,,,,,,,,,,,,,,0.6,,,,,,1,429.37,1,43,,,,,,,,,,,,,niwayamakodai,2024-06-26_21h07.36.403,demoExp_V2,2021.2.3,MacIntel,30.3030303,,,,,,,,,0.003333333,-0.093333333,1,0,0,group_1/1791.mp4,-0.001111111,-0.011111111,1,0,0,42,0,42,0,1,response3disk_2,center_square_2,,
,,,,,,,,,,,,,,,,,,,,,,,,,,,,,,,,,,,,,1,,,,,,1,432.904,1,44,,,,,,,,,,,,,niwayamakodai,2024-06-26_21h07.36.403,demoExp_V2,2021.2.3,MacIntel,30.3030303,,,,,,,,,0.008888889,-0.021111111,1,0,0,group_1/0059.mp4,0,0,1,0,0,43,0,43,0,1,response3disk_2,center_square_2,,
,,,,,,,,,,,,,,,,,,,,,,,,,,,,,,,,,,,,,1,,,,,,-2,436.638,1,45,,,,,,,,,,,,,niwayamakodai,2024-06-26_21h07.36.403,demoExp_V2,2021.2.3,MacIntel,30.3030303,,,,,,,,,-0.045555556,-0.025555556,1,0,0,group_1/2138.mp4,0.002222222,-0.013333333,1,0,0,44,0,44,0,1,response5disk_2,center_square_2,,
,,,,,,,,,,,,,,,,,,,,,,,,,,,,,,,,,,,,,0.9,,,,,,1,441.037,1,46,,,,,,,,,,,,,niwayamakodai,2024-06-26_21h07.36.403,demoExp_V2,2021.2.3,MacIntel,30.3030303,,,,,,,,,0.022222222,-0.073333333,1,0,0,group_1/1768.mp4,0.006666667,-0.01,1,0,0,45,0,45,0,1,response3disk_2,center_square_2,,
,,,,,,,,,,,,,,,,,,,,,,,,,,,,,,,,,,,,,0.7,,,,,,-3,449.604,1,47,,,,,,,,,,,,,niwayamakodai,2024-06-26_21h07.36.403,demoExp_V2,2021.2.3,MacIntel,30.3030303,,,,,,,,,-0.124444444,0.078888889,1,0,0,group_1/1791.mp4,0.005555556,0.013333333,1,0,0,46,0,46,0,1,response7disk_2,center_square_2,,
,,,,,,,,,,,,,,,,,,,,,,,,,,,,,,,,,,,,,0.6,,,,,,-2,456.404,1,48,,,,,,,,,,,,,niwayamakodai,2024-06-26_21h07.36.403,demoExp_V2,2021.2.3,MacIntel,30.3030303,,,,,,,,,-0.076666667,-0.036666667,1,0,0,group_1/0283.mp4,-0.005555556,0.013333333,1,0,0,47,0,47,0,1,response5disk_2,center_square_2,,
,,,,,,,,,,,,,,,,,,,,,,,,,,,,,,,,,,,,,0.6,,,,,,2,469.171,1,49,,,,,,,,,,,,,niwayamakodai,2024-06-26_21h07.36.403,demoExp_V2,2021.2.3,MacIntel,30.3030303,,,,,,,,,0.123333333,-0.091111111,1,0,0,group_1/1768.mp4,-0.005555556,0.004444444,1,0,0,48,0,48,0,1,response3disk_2,center_square_2,,
,,,,,,,,,,,,,,,,,,,,,,,,,,,,,,,,,,,,,0.5,,,,,,-3,477.071,1,50,,,,,,,,,,,,,niwayamakodai,2024-06-26_21h07.36.403,demoExp_V2,2021.2.3,MacIntel,30.3030303,,,,,,,,,-0.102222222,0.072222222,1,0,0,group_1/0927.mp4,0.003333333,-0.001111111,1,0,0,49,0,49,0,1,response7disk_2,center_square_2,,
,,,,,,,,,,,,,,,,,,,,,,,,,,,,,,,,,,,,,0.9,,,,,,-2,482.137,1,51,,,,,,,,,,,,,niwayamakodai,2024-06-26_21h07.36.403,demoExp_V2,2021.2.3,MacIntel,30.3030303,,,,,,,,,-0.085555556,-0.024444444,1,0,0,group_1/0059.mp4,0.013333333,0.006666667,1,0,0,50,0,50,0,1,response5disk_2,center_square_2,,
,,,,,,,,,,,,,,,,,,,,,,,,,,,,,,,,,,,,,1,,,,,,1,486.272,1,52,,,,,,,,,,,,,niwayamakodai,2024-06-26_21h07.36.403,demoExp_V2,2021.2.3,MacIntel,30.3030303,,,,,,,,,0.035555556,-0.091111111,1,0,0,group_1/1071.mp4,0.015555556,-0.016666667,1,0,0,51,0,51,0,1,response3disk_2,center_square_2,,
,,,,,,,,,,,,,,,,,,,,,,,,,,,,,,,,,,,,,1,,,,,,-1,493.505,1,53,,,,,,,,,,,,,niwayamakodai,2024-06-26_21h07.36.403,demoExp_V2,2021.2.3,MacIntel,30.3030303,,,,,,,,,-0.072222222,-0.084444444,1,0,0,group_1/1768.mp4,0.003333333,-0.001111111,1,0,0,52,0,52,0,1,response5disk_2,center_square_2,,
,,,,,,,,,,,,,,,,,,,,,,,,,,,,,,,,,,,,,0.8,,,,,,2,498.572,1,54,,,,,,,,,,,,,niwayamakodai,2024-06-26_21h07.36.403,demoExp_V2,2021.2.3,MacIntel,30.3030303,,,,,,,,,0.122222222,-0.076666667,1,0,0,group_1/1375.mp4,-0.002222222,-0.013333333,1,0,0,53,0,53,0,1,response3disk_2,center_square_2,,
,,,,,,,,,,,,,,,,,,,,,,,,,,,,,,,,,,,,,0.5,,,,,,1,505.038,1,55,,,,,,,,,,,,,niwayamakodai,2024-06-26_21h07.36.403,demoExp_V2,2021.2.3,MacIntel,30.3030303,,,,,,,,,0.037777778,-0.101111111,1,0,0,group_1/0059.mp4,0.005555556,-0.006666667,1,0,0,54,0,54,0,1,response3disk_2,center_square_2,,
,,,,,,,,,,,,,,,,,,,,,,,,,,,,,,,,,,,,,0.5,,,,,,3,521.906,1,56,,,,,,,,,,,,,niwayamakodai,2024-06-26_21h07.36.403,demoExp_V2,2021.2.3,MacIntel,30.3030303,,,,,,,,,0.117777778,0.002222222,1,0,0,group_1/0283.mp4,-0.004444444,-0.006666667,1,0,0,55,0,55,0,1,response1disk_2,center_square_2,,
,,,,,,,,,,,,,,,,,,,,,,,,,,,,,,,,,,,,,1,,,,,,2,526.472,1,57,,,,,,,,,,,,,niwayamakodai,2024-06-26_21h07.36.403,demoExp_V2,2021.2.3,MacIntel,30.3030303,,,,,,,,,0.092222222,-0.021111111,1,0,0,group_1/1375.mp4,0.011111111,-0.015555556,1,0,0,56,0,56,0,1,response3disk_2,center_square_2,,
,,,,,,,,,,,,,,,,,,,,,,,,,,,,,,,,,,,,,0.7,,,,,,-4,533.772,1,58,,,,,,,,,,,,,niwayamakodai,2024-06-26_21h07.36.403,demoExp_V2,2021.2.3,MacIntel,30.3030303,,,,,,,,,-0.014444444,0.061111111,1,0,0,group_1/0927.mp4,0.011111111,-0.003333333,1,0,0,57,0,57,0,1,response7disk_2,center_square_2,,
,,,,,,,,,,,,,,,,,,,,,,,,,,,,,,,,,,,,,0.6,,,,,,-1,539.039,1,59,,,,,,,,,,,,,niwayamakodai,2024-06-26_21h07.36.403,demoExp_V2,2021.2.3,MacIntel,30.3030303,,,,,,,,,-0.032222222,-0.058888889,1,0,0,group_1/1071.mp4,0,0.001111111,1,0,0,58,0,58,0,1,response5disk_2,center_square_2,,
,,,,,,,,,,,,,,,,,,,,,,,,,,,,,,,,,,,,,1,,,,,,3,557.639,1,60,,,,,,,,,,,,,niwayamakodai,2024-06-26_21h07.36.403,demoExp_V2,2021.2.3,MacIntel,30.3030303,,,,,,,,,0.188888889,0.06,1,0,0,group_1/0283.mp4,0.005555556,0.006666667,1,0,0,59,0,59,0,1,response1disk_2,center_square_2,,
,,,,,,,,,,,,,,,,,,,,,,,,,,,,,,,,,,,,,0.7,,,,,,-4,565.04,1,61,,,,,,,,,,,,,niwayamakodai,2024-06-26_21h07.36.403,demoExp_V2,2021.2.3,MacIntel,30.3030303,,,,,,,,,-0.075555556,0.204444444,1,0,0,group_1/0927.mp4,-0.005555556,0.013333333,1,0,0,60,0,60,0,1,response7disk_2,center_square_2,,
,,,,,,,,,,,,,,,,,,,,,,,,,,,,,,,,,,,,,1,,,,,,-3,570.672,1,62,,,,,,,,,,,,,niwayamakodai,2024-06-26_21h07.36.403,demoExp_V2,2021.2.3,MacIntel,30.3030303,,,,,,,,,-0.094444444,0.015555556,1,0,0,group_1/1071.mp4,-0.015555556,0.005555556,1,0,0,61,0,61,0,1,response7disk_2,center_square_2,,
,,,,,,,,,,,,,,,,,,,,,,,,,,,,,,,,,,,,,1,,,,,,1,575.506,1,63,,,,,,,,,,,,,niwayamakodai,2024-06-26_21h07.36.403,demoExp_V2,2021.2.3,MacIntel,30.3030303,,,,,,,,,0.036666667,-0.118888889,1,0,0,group_1/1375.mp4,0.005555556,-0.013333333,1,0,0,62,0,62,0,1,response3disk_2,center_square_2,,
,,,,,,,,,,,,,,,,,,,,,,,,,,,,,,,,,,,,,0.9,,,,,,1,580.74,1,64,,,,,,,,,,,,,niwayamakodai,2024-06-26_21h07.36.403,demoExp_V2,2021.2.3,MacIntel,30.3030303,,,,,,,,,0.03,-0.093333333,1,0,0,group_1/0059.mp4,0.006666667,0.008888889,1,0,0,63,0,63,0,1,response3disk_2,center_square_2,,
,,,,,,,,,,,,,,,,,,,,,,,,,,,,,,,,,,,,,0.6,,,,,,3,587.407,1,65,,,,,,,,,,,,,niwayamakodai,2024-06-26_21h07.36.403,demoExp_V2,2021.2.3,MacIntel,30.3030303,,,,,,,,,0.172222222,0.033333333,1,0,0,group_1/1768.mp4,-0.016666667,-0.007777778,1,0,0,64,0,64,0,1,response1disk_2,center_square_2,,
,,,,,,,,,,,,,,,,,,,,,,,,,,,,,,,,,,,,,0.9,,,,,,-3,592.94,1,66,,,,,,,,,,,,,niwayamakodai,2024-06-26_21h07.36.403,demoExp_V2,2021.2.3,MacIntel,30.3030303,,,,,,,,,-0.078888889,0.02,1,0,0,group_1/1791.mp4,-0.003333333,-0.015555556,1,0,0,65,0,65,0,1,response7disk_2,center_square_2,,
,,,,,,,,,,,,,,,,,,,,,,,,,,,,,,,,,,,,,0.6,,,,,,1,595.707,1,67,,,,,,,,,,,,,niwayamakodai,2024-06-26_21h07.36.403,demoExp_V2,2021.2.3,MacIntel,30.3030303,,,,,,,,,0.055555556,-0.153333333,1,0,0,group_1/2138.mp4,0.011111111,-0.008888889,1,0,0,66,0,66,0,1,response3disk_2,center_square_2,,
,,,,,,,,,,,,,,,,,,,,,,,,,,,,,,,,,,,,,0.9,,,,,,2,606.841,1,68,,,,,,,,,,,,,niwayamakodai,2024-06-26_21h07.36.403,demoExp_V2,2021.2.3,MacIntel,30.3030303,,,,,,,,,0.097777778,-0.074444444,1,0,0,group_1/1292.mp4,-0.011111111,-0.008888889,1,0,0,67,0,67,0,1,response3disk_2,center_square_2,,
,,,,,,,,,,,,,,,,,,,,,,,,,,,,,,,,,,,,,1,,,,,,-2,612.64,1,69,,,,,,,,,,,,,niwayamakodai,2024-06-26_21h07.36.403,demoExp_V2,2021.2.3,MacIntel,30.3030303,,,,,,,,,-0.081111111,-0.026666667,1,0,0,group_1/1169.mp4,0.014444444,0.006666667,1,0,0,68,0,68,0,1,response5disk_2,center_square_2,,
,,,,,,,,,,,,,,,,,,,,,,,,,,,,,,,,,,,,,0.7,,,,,,-2,623.007,1,70,,,,,,,,,,,,,niwayamakodai,2024-06-26_21h07.36.403,demoExp_V2,2021.2.3,MacIntel,30.3030303,,,,,,,,,-0.033333333,-0.003333333,1,0,0,group_1/1158.mp4,0.007777778,-0.001111111,1,0,0,69,0,69,0,1,response5disk_2,center_square_2,,
,,,,,,,,,,,,,,,,,,,,,,,,,,,,,,,,,,,,,1,,,,,,2,640.307,1,71,,,,,,,,,,,,,niwayamakodai,2024-06-26_21h07.36.403,demoExp_V2,2021.2.3,MacIntel,30.3030303,,,,,,,,,0.144444444,-0.138888889,1,0,0,group_1/0283.mp4,0.001111111,-0.016666667,1,0,0,70,0,70,0,1,response3disk_2,center_square_2,,
,,,,,,,,,,,,,,,,,,,,,,,,,,,,,,,,,,,,,,,,,,,,,,,,,,,,,,,,,,,niwayamakodai,2024-06-26_21h07.36.403,demoExp_V2,2021.2.3,MacIntel,30.3030303,,,,,,,,,,,,,,,,,,,,,,,,,,,space,3.883
