sequence,mouse.x,mouse.y,mouse.leftButton,mouse.midButton,mouse.rightButton,mouse.clicked_name,mouse_2.x,mouse_2.y,mouse_2.leftButton,mouse_2.midButton,mouse_2.rightButton,mouse_2.clicked_name,mouse_12.x,mouse_12.y,mouse_12.leftButton,mouse_12.midButton,mouse_12.rightButton,mouse_12.clicked_name,mouse_3.x,mouse_3.y,mouse_3.leftButton,mouse_3.midButton,mouse_3.rightButton,mouse_3.clicked_name,mouse_11.x,mouse_11.y,mouse_11.leftButton,mouse_11.midButton,mouse_11.rightButton,mouse_11.clicked_name,mouse_8.x,mouse_8.y,mouse_8.leftButton,mouse_8.midButton,mouse_8.rightButton,mouse_8.clicked_name,cross_time[0],mouse_5.x,mouse_5.y,mouse_5.leftButton,mouse_5.midButton,mouse_5.rightButton,similarity,response_time,Pass,trialNumber,mouse_7.x,mouse_7.y,mouse_7.leftButton,mouse_7.midButton,mouse_7.rightButton,prac_trials.thisRepN,prac_trials.thisTrialN,prac_trials.thisN,prac_trials.thisIndex,prac_trials.ran,video_file,video_id,Prolific_ID*,date,expName,psychopyVersion,OS,frameRate,mouse_5.clicked_name,mouse_7.clicked_name,mouse_4.x,mouse_4.y,mouse_4.leftButton,mouse_4.midButton,mouse_4.rightButton,mouse_4.clicked_name,mouse_9.x,mouse_9.y,mouse_9.leftButton,mouse_9.midButton,mouse_9.rightButton,this_video,mouse_6.x,mouse_6.y,mouse_6.leftButton,mouse_6.midButton,mouse_6.rightButton,Experiment.thisRepN,Experiment.thisTrialN,Experiment.thisN,Experiment.thisIndex,Experiment.ran,mouse_9.clicked_name,mouse_6.clicked_name,key_resp.keys,key_resp.rt
"[""group_1/1791.mp4"",""group_1/1292.mp4"",""group_1/2138.mp4"",""group_1/1791.mp4"",""group_1/1158.mp4"",""group_1/1292.mp4"",""group_1/0927.mp4"",""group_1/0283.mp4"",""group_1/1292.mp4"",""group_1/1071.mp4"",""group_1/1791.mp4"",""group_1/1169.mp4"",""group_1/1292.mp4"",""group_1/0059.mp4"",""group_1/1791.mp4"",""group_1/1375.mp4"",""group_1/1292.mp4"",""group_1/1703.mp4"",""group_1/1791.mp4"",""group_1/1768.mp4"",""group_1/2138.mp4"",""group_1/1703.mp4"",""group_1/1158.mp4"",""group_1/1375.mp4"",""group_1/2138.mp4"",""group_1/0059.mp4"",""group_1/1158.mp4"",""group_1/1169.mp4"",""group_1/2138.mp4"",""group_1/1071.mp4"",""group_1/1158.mp4"",""group_1/0283.mp4"",""group_1/2138.mp4"",""group_1/0927.mp4"",""group_1/1158.mp4"",""group_1/1768.mp4"",""group_1/0927.mp4"",""group_1/1703.mp4"",""group_1/0283.mp4"",""group_1/1375.mp4"",""group_1/0927.mp4"",""group_1/0059.mp4"",""group_1/0283.mp4"",""group_1/1169.mp4"",""group_1/0927.mp4"",""group_1/1071.mp4"",""group_1/0283.mp4"",""group_1/1768.mp4"",""group_1/1071.mp4"",""group_1/1703.mp4"",""group_1/1169.mp4"",""group_1/1375.mp4"",""group_1/1071.mp4"",""group_1/0059.mp4"",""group_1/1169.mp4"",""group_1/1768.mp4"",""group_1/0059.mp4"",""group_1/1703.mp4"",""group_1/1375.mp4"",""group_1/1768.mp4"",""group_1/1703.mp4"",""group_1/1375.mp4"",""group_1/0059.mp4"",""group_1/1169.mp4"",""group_1/1071.mp4"",""group_1/0283.mp4"",""group_1/0927.mp4"",""group_1/1158.mp4"",""group_1/2138.mp4"",""group_1/1292.mp4"",""group_1/1768.mp4""]",-0.009780093,-0.389847884,1,0,0,image,0.023487103,-0.423821925,1,0,0,image_2,0.015166171,-0.401417824,1,0,0,image,-0.010300926,-0.399346892,1,0,0,image,0.001351687,-0.415959821,1,0,0,image,-0.002835648,-0.000326554,1,0,0,center_square_3,0.7,-0.00526207,-0.005667163,0,0,0,-1,126.6768,1,1,-0.00526207,-0.005667163,0,0,0,0,0,0,0,1,videos/0001.mp4,1,takakiyuri,2024-06-26_21h04.37.492,demoExp_V2,2021.2.3,MacIntel,128.2051282,,,,,,,,,,,,,,,,,,,,,,,,,,,,
,,,,,,,,,,,,,,,,,,,,,,,,,,,,,,,,,,,,,1,0.057700893,0.135102513,1,0,0,4,131.4761,1,2,-0.002157738,-0.00171131,1,0,0,0,1,1,1,1,videos/0002.mp4,2,takakiyuri,2024-06-26_21h04.37.492,demoExp_V2,2021.2.3,MacIntel,128.2051282,response1disk,center_square,,,,,,,,,,,,,,,,,,,,,,,,,,
,,,,,,,,,,,,,,,,,,,,,,,,,,,,,,,,,,,,,1,-0.111611276,-0.063723545,1,0,0,-2,144.5105,1,3,-0.003807044,0.010557209,1,0,0,0,2,2,2,1,videos/0003.mp4,3,takakiyuri,2024-06-26_21h04.37.492,demoExp_V2,2021.2.3,MacIntel,128.2051282,response5disk,center_square,,,,,,,,,,,,,,,,,,,,,,,,,,
,,,,,,,,,,,,,,,,,,,,,,,,,,,,,,,,,,,,,0.9,0.069233631,-0.109651951,1,0,0,1,157.9231,1,4,-0.003005126,0.015505126,1,0,0,0,3,3,3,1,videos/0004.mp4,4,takakiyuri,2024-06-26_21h04.37.492,demoExp_V2,2021.2.3,MacIntel,128.2051282,response3disk,center_square,,,,,,,,,,,,,,,,,,,,,,,,,,
,,,,,,,,,,,,,,,,,,,,,,,,,,,,,,,,,,,,,0.7,-0.141174769,-0.056907242,1,0,0,-2,167.069,1,5,0.001062335,-0.003277943,1,0,0,0,4,4,4,1,videos/0005.mp4,5,takakiyuri,2024-06-26_21h04.37.492,demoExp_V2,2021.2.3,MacIntel,128.2051282,response5disk,center_square,,,,,,,,,,,,,,,,,,,,,,,,,,
,,,,,,,,,,,,,,,,,,,,,,,,,,,,,,,,,,,,,0.7,-0.12504547,-0.057845569,1,0,0,-2,195.5807,1,6,0.000289352,-0.003691303,1,0,0,0,5,5,5,1,videos/0006.mp4,6,takakiyuri,2024-06-26_21h04.37.492,demoExp_V2,2021.2.3,MacIntel,128.2051282,response5disk,center_square,,,,,,,,,,,,,,,,,,,,,,,,,,
,,,,,,,,,,,,,,,,,,,,,,,,,,,,,,,-0.004249339,0.001054067,1,0,0,center_square_3,0.8,,,,,,3,208.8869,1,1,,,,,,,,,,,,,takakiyuri,2024-06-26_21h04.37.492,demoExp_V2,2021.2.3,MacIntel,128.2051282,,,0.002699239,-0.391807209,1,0,0,image,0.009126984,0.003091931,0,0,0,group_1/1791.mp4,0.009126984,0.003091931,0,0,0,0,0,0,0,1,,,,
,,,,,,,,,,,,,,,,,,,,,,,,,,,,,,,,,,,,,0.8,,,,,,-2,220.0598,1,2,,,,,,,,,,,,,takakiyuri,2024-06-26_21h04.37.492,demoExp_V2,2021.2.3,MacIntel,128.2051282,,,,,,,,,-0.145986276,-0.04212963,1,0,0,group_1/1292.mp4,0.005753968,-0.002290013,1,0,0,1,0,1,0,1,response5disk_2,center_square_2,,
,,,,,,,,,,,,,,,,,,,,,,,,,,,,,,,,,,,,,0.8,,,,,,2,229.5398,1,3,,,,,,,,,,,,,takakiyuri,2024-06-26_21h04.37.492,demoExp_V2,2021.2.3,MacIntel,128.2051282,,,,,,,,,0.126984127,-0.047255291,1,0,0,group_1/2138.mp4,-0.001579034,-0.003414352,1,0,0,2,0,2,0,1,response3disk_2,center_square_2,,
,,,,,,,,,,,,,,,,,,,,,,,,,,,,,,,,,,,,,0.6,,,,,,2,236.8717,1,4,,,,,,,,,,,,,takakiyuri,2024-06-26_21h04.37.492,demoExp_V2,2021.2.3,MacIntel,128.2051282,,,,,,,,,0.115422454,-0.063417659,1,0,0,group_1/1791.mp4,-0.002029597,-0.004749504,1,0,0,3,0,3,0,1,response3disk_2,center_square_2,,
,,,,,,,,,,,,,,,,,,,,,,,,,,,,,,,,,,,,,1,,,,,,1,245.576,1,5,,,,,,,,,,,,,takakiyuri,2024-06-26_21h04.37.492,demoExp_V2,2021.2.3,MacIntel,128.2051282,,,,,,,,,0.078621032,-0.123999669,1,0,0,group_1/1158.mp4,0.00374504,-0.004456019,1,0,0,4,0,4,0,1,response3disk_2,center_square_2,,
,,,,,,,,,,,,,,,,,,,,,,,,,,,,,,,,,,,,,0.7,,,,,,-2,259.593,1,6,,,,,,,,,,,,,takakiyuri,2024-06-26_21h04.37.492,demoExp_V2,2021.2.3,MacIntel,128.2051282,,,,,,,,,-0.137776951,-0.053472222,1,0,0,group_1/1292.mp4,0.001926257,-0.000549769,1,0,0,5,0,5,0,1,response5disk_2,center_square_2,,
,,,,,,,,,,,,,,,,,,,,,,,,,,,,,,,,,,,,,0.6,,,,,,-4,267.9303,1,7,,,,,,,,,,,,,takakiyuri,2024-06-26_21h04.37.492,demoExp_V2,2021.2.3,MacIntel,128.2051282,,,,,,,,,-0.076070602,0.131014385,1,0,0,group_1/0927.mp4,0.0083292,-0.002261078,1,0,0,6,0,6,0,1,response7disk_2,center_square_2,,
,,,,,,,,,,,,,,,,,,,,,,,,,,,,,,,,,,,,,0.8,,,,,,3,285.8966,1,8,,,,,,,,,,,,,takakiyuri,2024-06-26_21h04.37.492,demoExp_V2,2021.2.3,MacIntel,128.2051282,,,,,,,,,0.141848545,0.054873512,1,0,0,group_1/0283.mp4,0.000768849,-0.004571759,1,0,0,7,0,7,0,1,response1disk_2,center_square_2,,
,,,,,,,,,,,,,,,,,,,,,,,,,,,,,,,,,,,,,0.7,,,,,,1,296.5921,1,9,,,,,,,,,,,,,takakiyuri,2024-06-26_21h04.37.492,demoExp_V2,2021.2.3,MacIntel,128.2051282,,,,,,,,,0.04358879,-0.124871858,1,0,0,group_1/1292.mp4,-0.003137401,-0.003368882,1,0,0,8,0,8,0,1,response3disk_2,center_square_2,,
,,,,,,,,,,,,,,,,,,,,,,,,,,,,,,,,,,,,,0.5,,,,,,1,303.1922,1,10,,,,,,,,,,,,,takakiyuri,2024-06-26_21h04.37.492,demoExp_V2,2021.2.3,MacIntel,128.2051282,,,,,,,,,0.056254134,-0.113893022,1,0,0,group_1/1071.mp4,0.016013558,-0.003096065,1,0,0,9,0,9,0,1,response3disk_2,center_square_2,,
,,,,,,,,,,,,,,,,,,,,,,,,,,,,,,,,,,,,,0.6,,,,,,-1,313.1253,1,11,,,,,,,,,,,,,takakiyuri,2024-06-26_21h04.37.492,demoExp_V2,2021.2.3,MacIntel,128.2051282,,,,,,,,,-0.060925099,-0.099656911,1,0,0,group_1/1791.mp4,0.009155919,0.014136905,1,0,0,10,0,10,0,1,response5disk_2,center_square_2,,
,,,,,,,,,,,,,,,,,,,,,,,,,,,,,,,,,,,,,0.9,,,,,,-2,320.8458,1,12,,,,,,,,,,,,,takakiyuri,2024-06-26_21h04.37.492,demoExp_V2,2021.2.3,MacIntel,128.2051282,,,,,,,,,-0.125806052,-0.059924769,1,0,0,group_1/1169.mp4,0.001351687,-0.004183201,1,0,0,11,0,11,0,1,response5disk_2,center_square_2,,
,,,,,,,,,,,,,,,,,,,,,,,,,,,,,,,,,,,,,0.9,,,,,,1,334.8089,1,13,,,,,,,,,,,,,takakiyuri,2024-06-26_21h04.37.492,demoExp_V2,2021.2.3,MacIntel,128.2051282,,,,,,,,,0.052678571,-0.116827877,1,0,0,group_1/1292.mp4,-0.016600529,0.005877976,1,0,0,12,0,12,0,1,response3disk_2,center_square_2,,
,,,,,,,,,,,,,,,,,,,,,,,,,,,,,,,,,,,,,0.5,,,,,,-2,341.3292,1,14,,,,,,,,,,,,,takakiyuri,2024-06-26_21h04.37.492,demoExp_V2,2021.2.3,MacIntel,128.2051282,,,,,,,,,-0.176054067,-0.093998016,1,0,0,group_1/0059.mp4,0.010573743,-0.016951885,1,0,0,13,0,13,0,1,response5disk_2,center_square_2,,
,,,,,,,,,,,,,,,,,,,,,,,,,,,,,,,,,,,,,1,,,,,,-2,347.6801,1,15,,,,,,,,,,,,,takakiyuri,2024-06-26_21h04.37.492,demoExp_V2,2021.2.3,MacIntel,128.2051282,,,,,,,,,-0.114517196,-0.067654597,1,0,0,group_1/1791.mp4,-0.010470403,0.00369957,1,0,0,14,0,14,0,1,response5disk_2,center_square_2,,
,,,,,,,,,,,,,,,,,,,,,,,,,,,,,,,,,,,,,0.8,,,,,,-1,359.5118,1,16,,,,,,,,,,,,,takakiyuri,2024-06-26_21h04.37.492,demoExp_V2,2021.2.3,MacIntel,128.2051282,,,,,,,,,-0.068146495,-0.122652116,1,0,0,group_1/1375.mp4,0.002054398,0.002397487,1,0,0,15,0,15,0,1,response5disk_2,center_square_2,,
,,,,,,,,,,,,,,,,,,,,,,,,,,,,,,,,,,,,,0.8,,,,,,2,370.7748,1,17,,,,,,,,,,,,,takakiyuri,2024-06-26_21h04.37.492,demoExp_V2,2021.2.3,MacIntel,128.2051282,,,,,,,,,0.15082672,-0.058527612,1,0,0,group_1/1292.mp4,0.001579034,0.002724041,1,0,0,16,0,16,0,1,response3disk_2,center_square_2,,
,,,,,,,,,,,,,,,,,,,,,,,,,,,,,,,,,,,,,1,,,,,,3,381.4621,1,18,,,,,,,,,,,,,takakiyuri,2024-06-26_21h04.37.492,demoExp_V2,2021.2.3,MacIntel,128.2051282,,,,,,,,,0.141662533,0.065033896,1,0,0,group_1/1703.mp4,-0.002430556,-0.007862103,1,0,0,17,0,17,0,1,response1disk_2,center_square_2,,
,,,,,,,,,,,,,,,,,,,,,,,,,,,,,,,,,,,,,0.9,,,,,,-2,392.0494,1,19,,,,,,,,,,,,,takakiyuri,2024-06-26_21h04.37.492,demoExp_V2,2021.2.3,MacIntel,128.2051282,,,,,,,,,-0.0739542,-0.021412037,1,0,0,group_1/1791.mp4,-0.004484954,-0.015352183,1,0,0,18,0,18,0,1,response5disk_2,center_square_2,,
,,,,,,,,,,,,,,,,,,,,,,,,,,,,,,,,,,,,,1,,,,,,-2,401.2162,1,20,,,,,,,,,,,,,takakiyuri,2024-06-26_21h04.37.492,demoExp_V2,2021.2.3,MacIntel,128.2051282,,,,,,,,,-0.12651703,-0.061846892,1,0,0,group_1/1768.mp4,-0.002455357,-0.011999835,1,0,0,19,0,19,0,1,response5disk_2,center_square_2,,
,,,,,,,,,,,,,,,,,,,,,,,,,,,,,,,,,,,,,0.6,,,,,,2,409.5117,1,21,,,,,,,,,,,,,takakiyuri,2024-06-26_21h04.37.492,demoExp_V2,2021.2.3,MacIntel,128.2051282,,,,,,,,,0.12406994,-0.041207837,1,0,0,group_1/2138.mp4,0.008676422,-0.013210979,1,0,0,20,0,20,0,1,response3disk_2,center_square_2,,
,,,,,,,,,,,,,,,,,,,,,,,,,,,,,,,,,,,,,0.9,,,,,,-2,420.8248,1,22,,,,,,,,,,,,,takakiyuri,2024-06-26_21h04.37.492,demoExp_V2,2021.2.3,MacIntel,128.2051282,,,,,,,,,-0.142456184,-0.049570106,1,0,0,group_1/1703.mp4,0.016034226,-0.004497354,1,0,0,21,0,21,0,1,response5disk_2,center_square_2,,
,,,,,,,,,,,,,,,,,,,,,,,,,,,,,,,,,,,,,0.7,,,,,,-3,429.2449,1,23,,,,,,,,,,,,,takakiyuri,2024-06-26_21h04.37.492,demoExp_V2,2021.2.3,MacIntel,128.2051282,,,,,,,,,-0.115558862,0.055729167,1,0,0,group_1/1158.mp4,-0.012748016,-0.002178406,1,0,0,22,0,22,0,1,response7disk_2,center_square_2,,
,,,,,,,,,,,,,,,,,,,,,,,,,,,,,,,,,,,,,0.8,,,,,,-3,434.0997,1,24,,,,,,,,,,,,,takakiyuri,2024-06-26_21h04.37.492,demoExp_V2,2021.2.3,MacIntel,128.2051282,,,,,,,,,-0.106427745,0.042778604,1,0,0,group_1/1375.mp4,-0.005166997,-0.008969907,1,0,0,23,0,23,0,1,response7disk_2,center_square_2,,
,,,,,,,,,,,,,,,,,,,,,,,,,,,,,,,,,,,,,0.9,,,,,,-2,444.5983,1,25,,,,,,,,,,,,,takakiyuri,2024-06-26_21h04.37.492,demoExp_V2,2021.2.3,MacIntel,128.2051282,,,,,,,,,-0.101488095,-0.044167493,1,0,0,group_1/2138.mp4,0.006328538,-0.002037864,1,0,0,24,0,24,0,1,response5disk_2,center_square_2,,
,,,,,,,,,,,,,,,,,,,,,,,,,,,,,,,,,,,,,0.7,,,,,,1,454.6029,1,26,,,,,,,,,,,,,takakiyuri,2024-06-26_21h04.37.492,demoExp_V2,2021.2.3,MacIntel,128.2051282,,,,,,,,,0.066211971,-0.112318122,1,0,0,group_1/0059.mp4,-0.003430886,-0.001550099,1,0,0,25,0,25,0,1,response3disk_2,center_square_2,,
,,,,,,,,,,,,,,,,,,,,,,,,,,,,,,,,,,,,,0.8,,,,,,1,463.5697,1,27,,,,,,,,,,,,,takakiyuri,2024-06-26_21h04.37.492,demoExp_V2,2021.2.3,MacIntel,128.2051282,,,,,,,,,0.046895668,-0.149003803,1,0,0,group_1/1158.mp4,0.006555886,0.005580357,1,0,0,26,0,26,0,1,response3disk_2,center_square_2,,
,,,,,,,,,,,,,,,,,,,,,,,,,,,,,,,,,,,,,1,,,,,,2,471.9485,1,28,,,,,,,,,,,,,takakiyuri,2024-06-26_21h04.37.492,demoExp_V2,2021.2.3,MacIntel,128.2051282,,,,,,,,,0.149780919,-0.049983466,1,0,0,group_1/1169.mp4,-0.008316799,0.007291667,1,0,0,27,0,27,0,1,response3disk_2,center_square_2,,
,,,,,,,,,,,,,,,,,,,,,,,,,,,,,,,,,,,,,0.9,,,,,,-1,482.7147,1,29,,,,,,,,,,,,,takakiyuri,2024-06-26_21h04.37.492,demoExp_V2,2021.2.3,MacIntel,128.2051282,,,,,,,,,-0.078282077,-0.135218254,1,0,0,group_1/2138.mp4,0.01640625,-0.009775959,1,0,0,28,0,28,0,1,response5disk_2,center_square_2,,
,,,,,,,,,,,,,,,,,,,,,,,,,,,,,,,,,,,,,0.9,,,,,,-2,491.1651,1,30,,,,,,,,,,,,,takakiyuri,2024-06-26_21h04.37.492,demoExp_V2,2021.2.3,MacIntel,128.2051282,,,,,,,,,-0.113169643,-0.034875165,1,0,0,group_1/1071.mp4,-0.009908234,-0.00552662,1,0,0,29,0,29,0,1,response5disk_2,center_square_2,,
,,,,,,,,,,,,,,,,,,,,,,,,,,,,,,,,,,,,,1,,,,,,1,500.3911,1,31,,,,,,,,,,,,,takakiyuri,2024-06-26_21h04.37.492,demoExp_V2,2021.2.3,MacIntel,128.2051282,,,,,,,,,0.05129795,-0.118650794,1,0,0,group_1/1158.mp4,0.007667824,-0.008461475,1,0,0,30,0,30,0,1,response3disk_2,center_square_2,,
,,,,,,,,,,,,,,,,,,,,,,,,,,,,,,,,,,,,,0.7,,,,,,-1,523.7231,1,32,,,,,,,,,,,,,takakiyuri,2024-06-26_21h04.37.492,demoExp_V2,2021.2.3,MacIntel,128.2051282,,,,,,,,,-0.041410384,-0.095717593,1,0,0,group_1/0283.mp4,0.014132771,-0.005076058,1,0,0,31,0,31,0,1,response5disk_2,center_square_2,,
,,,,,,,,,,,,,,,,,,,,,,,,,,,,,,,,,,,,,0.9,,,,,,1,534.5733,1,33,,,,,,,,,,,,,takakiyuri,2024-06-26_21h04.37.492,demoExp_V2,2021.2.3,MacIntel,128.2051282,,,,,,,,,0.073115079,-0.15682457,1,0,0,group_1/2138.mp4,0.008097718,-0.011011905,1,0,0,32,0,32,0,1,response3disk_2,center_square_2,,
,,,,,,,,,,,,,,,,,,,,,,,,,,,,,,,,,,,,,0.8,,,,,,1,543.4344,1,34,,,,,,,,,,,,,takakiyuri,2024-06-26_21h04.37.492,demoExp_V2,2021.2.3,MacIntel,128.2051282,,,,,,,,,0.062313988,-0.135511739,1,0,0,group_1/0927.mp4,-0.005663029,0.015273644,1,0,0,33,0,33,0,1,response3disk_2,center_square_2,,
,,,,,,,,,,,,,,,,,,,,,,,,,,,,,,,,,,,,,0.7,,,,,,1,556.3769,1,35,,,,,,,,,,,,,takakiyuri,2024-06-26_21h04.37.492,demoExp_V2,2021.2.3,MacIntel,128.2051282,,,,,,,,,0.073015873,-0.171159888,1,0,0,group_1/1158.mp4,-0.009474206,-0.009899967,1,0,0,34,0,34,0,1,response3disk_2,center_square_2,,
,,,,,,,,,,,,,,,,,,,,,,,,,,,,,,,,,,,,,0.6,,,,,,-1,572.0766,1,36,,,,,,,,,,,,,takakiyuri,2024-06-26_21h04.37.492,demoExp_V2,2021.2.3,MacIntel,128.2051282,,,,,,,,,-0.040806878,-0.116431052,1,0,0,group_1/1768.mp4,-0.001037533,-0.000285218,1,0,0,35,0,35,0,1,response5disk_2,center_square_2,,
,,,,,,,,,,,,,,,,,,,,,,,,,,,,,,,,,,,,,0.8,,,,,,-3,581.981,1,37,,,,,,,,,,,,,takakiyuri,2024-06-26_21h04.37.492,demoExp_V2,2021.2.3,MacIntel,128.2051282,,,,,,,,,-0.146775794,0.02417328,1,0,0,group_1/0927.mp4,0.009036045,-0.000541501,1,0,0,36,0,36,0,1,response7disk_2,center_square_2,,
,,,,,,,,,,,,,,,,,,,,,,,,,,,,,,,,,,,,,1,,,,,,-4,591.9095,1,38,,,,,,,,,,,,,takakiyuri,2024-06-26_21h04.37.492,demoExp_V2,2021.2.3,MacIntel,128.2051282,,,,,,,,,-0.052703373,0.153993056,1,0,0,group_1/1703.mp4,-0.003831845,-0.000380291,1,0,0,37,0,37,0,1,response7disk_2,center_square_2,,
,,,,,,,,,,,,,,,,,,,,,,,,,,,,,,,,,,,,,0.5,,,,,,2,609.6855,1,39,,,,,,,,,,,,,takakiyuri,2024-06-26_21h04.37.492,demoExp_V2,2021.2.3,MacIntel,128.2051282,,,,,,,,,0.141455853,-0.053306878,1,0,0,group_1/0283.mp4,0.003959987,-0.002938988,1,0,0,38,0,38,0,1,response3disk_2,center_square_2,,
,,,,,,,,,,,,,,,,,,,,,,,,,,,,,,,,,,,,,0.5,,,,,,-2,616.6177,1,40,,,,,,,,,,,,,takakiyuri,2024-06-26_21h04.37.492,demoExp_V2,2021.2.3,MacIntel,128.2051282,,,,,,,,,-0.14031498,-0.083630952,1,0,0,group_1/1375.mp4,0.013210979,-0.003687169,1,0,0,39,0,39,0,1,response5disk_2,center_square_2,,
,,,,,,,,,,,,,,,,,,,,,,,,,,,,,,,,,,,,,0.7,,,,,,-3,625.7969,1,41,,,,,,,,,,,,,takakiyuri,2024-06-26_21h04.37.492,demoExp_V2,2021.2.3,MacIntel,128.2051282,,,,,,,,,-0.112838955,0.042166832,1,0,0,group_1/0927.mp4,0.014715608,0.001500496,1,0,0,40,0,40,0,1,response7disk_2,center_square_2,,
,,,,,,,,,,,,,,,,,,,,,,,,,,,,,,,,,,,,,0.7,,,,,,-2,633.7517,1,42,,,,,,,,,,,,,takakiyuri,2024-06-26_21h04.37.492,demoExp_V2,2021.2.3,MacIntel,128.2051282,,,,,,,,,-0.115261243,-0.071114418,1,0,0,group_1/0059.mp4,0.013190311,-0.004344411,1,0,0,41,0,41,0,1,response5disk_2,center_square_2,,
,,,,,,,,,,,,,,,,,,,,,,,,,,,,,,,,,,,,,0.7,,,,,,-3,651.5799,1,43,,,,,,,,,,,,,takakiyuri,2024-06-26_21h04.37.492,demoExp_V2,2021.2.3,MacIntel,128.2051282,,,,,,,,,-0.118377976,0.021883267,1,0,0,group_1/0283.mp4,0.001955192,-0.001901455,1,0,0,42,0,42,0,1,response7disk_2,center_square_2,,
,,,,,,,,,,,,,,,,,,,,,,,,,,,,,,,,,,,,,1,,,,,,-1,664.9485,1,44,,,,,,,,,,,,,takakiyuri,2024-06-26_21h04.37.492,demoExp_V2,2021.2.3,MacIntel,128.2051282,,,,,,,,,-0.039699074,-0.124685847,1,0,0,group_1/1169.mp4,0.01239666,-0.00473297,1,0,0,43,0,43,0,1,response5disk_2,center_square_2,,
,,,,,,,,,,,,,,,,,,,,,,,,,,,,,,,,,,,,,0.6,,,,,,1,672.4216,1,45,,,,,,,,,,,,,takakiyuri,2024-06-26_21h04.37.492,demoExp_V2,2021.2.3,MacIntel,128.2051282,,,,,,,,,0.079807374,-0.136995701,1,0,0,group_1/0927.mp4,-0.008519345,0.004286541,1,0,0,44,0,44,0,1,response3disk_2,center_square_2,,
,,,,,,,,,,,,,,,,,,,,,,,,,,,,,,,,,,,,,0.5,,,,,,-1,678.4131,1,46,,,,,,,,,,,,,takakiyuri,2024-06-26_21h04.37.492,demoExp_V2,2021.2.3,MacIntel,128.2051282,,,,,,,,,-0.017563657,-0.121209491,1,0,0,group_1/1071.mp4,0.010164517,-0.008052249,1,0,0,45,0,45,0,1,response5disk_2,center_square_2,,
,,,,,,,,,,,,,,,,,,,,,,,,,,,,,,,,,,,,,0.7,,,,,,-2,696.0543,1,47,,,,,,,,,,,,,takakiyuri,2024-06-26_21h04.37.492,demoExp_V2,2021.2.3,MacIntel,128.2051282,,,,,,,,,-0.104373347,-0.030555556,1,0,0,group_1/0283.mp4,0.004195602,-0.002905919,1,0,0,46,0,46,0,1,response5disk_2,center_square_2,,
,,,,,,,,,,,,,,,,,,,,,,,,,,,,,,,,,,,,,1,,,,,,1,712.5661,1,48,,,,,,,,,,,,,takakiyuri,2024-06-26_21h04.37.492,demoExp_V2,2021.2.3,MacIntel,128.2051282,,,,,,,,,0.059908234,-0.092571925,1,0,0,group_1/1768.mp4,-0.008775628,0.000607639,1,0,0,47,0,47,0,1,response3disk_2,center_square_2,,
,,,,,,,,,,,,,,,,,,,,,,,,,,,,,,,,,,,,,0.5,,,,,,-2,717.7009,1,49,,,,,,,,,,,,,takakiyuri,2024-06-26_21h04.37.492,demoExp_V2,2021.2.3,MacIntel,128.2051282,,,,,,,,,-0.09870205,-0.044498181,1,0,0,group_1/1071.mp4,0.007845569,-0.0005167,1,0,0,48,0,48,0,1,response5disk_2,center_square_2,,
,,,,,,,,,,,,,,,,,,,,,,,,,,,,,,,,,,,,,0.7,,,,,,-2,726.4173,1,50,,,,,,,,,,,,,takakiyuri,2024-06-26_21h04.37.492,demoExp_V2,2021.2.3,MacIntel,128.2051282,,,,,,,,,-0.093729332,-0.02962963,1,0,0,group_1/1703.mp4,-0.001475694,-0.003835979,1,0,0,49,0,49,0,1,response5disk_2,center_square_2,,
,,,,,,,,,,,,,,,,,,,,,,,,,,,,,,,,,,,,,0.6,,,,,,-2,734.9953,1,51,,,,,,,,,,,,,takakiyuri,2024-06-26_21h04.37.492,demoExp_V2,2021.2.3,MacIntel,128.2051282,,,,,,,,,-0.151512897,-0.05250496,1,0,0,group_1/1169.mp4,-0.006171462,0.000343089,1,0,0,50,0,50,0,1,response5disk_2,center_square_2,,
,,,,,,,,,,,,,,,,,,,,,,,,,,,,,,,,,,,,,0.8,,,,,,-1,739.4495,1,52,,,,,,,,,,,,,takakiyuri,2024-06-26_21h04.37.492,demoExp_V2,2021.2.3,MacIntel,128.2051282,,,,,,,,,-0.073292824,-0.13125,1,0,0,group_1/1375.mp4,0.014314649,-0.005815972,1,0,0,51,0,51,0,1,response5disk_2,center_square_2,,
,,,,,,,,,,,,,,,,,,,,,,,,,,,,,,,,,,,,,0.5,,,,,,-1,744.2629,1,53,,,,,,,,,,,,,takakiyuri,2024-06-26_21h04.37.492,demoExp_V2,2021.2.3,MacIntel,128.2051282,,,,,,,,,-0.049351025,-0.105923446,1,0,0,group_1/1071.mp4,0.016939484,0.003265542,1,0,0,52,0,52,0,1,response5disk_2,center_square_2,,
,,,,,,,,,,,,,,,,,,,,,,,,,,,,,,,,,,,,,0.5,,,,,,-2,748.6499,1,54,,,,,,,,,,,,,takakiyuri,2024-06-26_21h04.37.492,demoExp_V2,2021.2.3,MacIntel,128.2051282,,,,,,,,,-0.151963459,-0.065930886,1,0,0,group_1/0059.mp4,0.006283069,0.000181878,1,0,0,53,0,53,0,1,response5disk_2,center_square_2,,
,,,,,,,,,,,,,,,,,,,,,,,,,,,,,,,,,,,,,0.7,,,,,,2,754.3532,1,55,,,,,,,,,,,,,takakiyuri,2024-06-26_21h04.37.492,demoExp_V2,2021.2.3,MacIntel,128.2051282,,,,,,,,,0.13708664,-0.036921296,1,0,0,group_1/1169.mp4,-0.011433532,0.004956184,1,0,0,54,0,54,0,1,response3disk_2,center_square_2,,
,,,,,,,,,,,,,,,,,,,,,,,,,,,,,,,,,,,,,0.5,,,,,,-2,761.5787,1,56,,,,,,,,,,,,,takakiyuri,2024-06-26_21h04.37.492,demoExp_V2,2021.2.3,MacIntel,128.2051282,,,,,,,,,-0.162673611,-0.029749504,1,0,0,group_1/1768.mp4,-0.009875165,-0.003249008,1,0,0,55,0,55,0,1,response5disk_2,center_square_2,,
,,,,,,,,,,,,,,,,,,,,,,,,,,,,,,,,,,,,,0.9,,,,,,-2,773.1328,1,57,,,,,,,,,,,,,takakiyuri,2024-06-26_21h04.37.492,demoExp_V2,2021.2.3,MacIntel,128.2051282,,,,,,,,,-0.095477844,-0.017249504,1,0,0,group_1/0059.mp4,0.003253142,0.003993056,1,0,0,56,0,56,0,1,response5disk_2,center_square_2,,
,,,,,,,,,,,,,,,,,,,,,,,,,,,,,,,,,,,,,0.9,,,,,,-2,782.723,1,58,,,,,,,,,,,,,takakiyuri,2024-06-26_21h04.37.492,demoExp_V2,2021.2.3,MacIntel,128.2051282,,,,,,,,,-0.112735615,-0.046201224,1,0,0,group_1/1703.mp4,0.007601687,-0.005332341,1,0,0,57,0,57,0,1,response5disk_2,center_square_2,,
,,,,,,,,,,,,,,,,,,,,,,,,,,,,,,,,,,,,,0.9,,,,,,-1,790.0657,1,59,,,,,,,,,,,,,takakiyuri,2024-06-26_21h04.37.492,demoExp_V2,2021.2.3,MacIntel,128.2051282,,,,,,,,,-0.058453208,-0.13141121,1,0,0,group_1/1375.mp4,0.000739914,0.003625165,1,0,0,58,0,58,0,1,response5disk_2,center_square_2,,
,,,,,,,,,,,,,,,,,,,,,,,,,,,,,,,,,,,,,0.7,,,,,,2,798.2072,1,60,,,,,,,,,,,,,takakiyuri,2024-06-26_21h04.37.492,demoExp_V2,2021.2.3,MacIntel,128.2051282,,,,,,,,,0.163289517,-0.073077877,1,0,0,group_1/1768.mp4,-0.000764716,0.005828373,1,0,0,59,0,59,0,1,response3disk_2,center_square_2,,
,,,,,,,,,,,,,,,,,,,,,,,,,,,,,,,,,,,,,0.8,,,,,,2,807.3869,1,61,,,,,,,,,,,,,takakiyuri,2024-06-26_21h04.37.492,demoExp_V2,2021.2.3,MacIntel,128.2051282,,,,,,,,,0.128687169,-0.053732639,1,0,0,group_1/1703.mp4,-0.001244213,0.012880291,1,0,0,60,0,60,0,1,response3disk_2,center_square_2,,
,,,,,,,,,,,,,,,,,,,,,,,,,,,,,,,,,,,,,0.5,,,,,,3,812.1661,1,62,,,,,,,,,,,,,takakiyuri,2024-06-26_21h04.37.492,demoExp_V2,2021.2.3,MacIntel,128.2051282,,,,,,,,,0.153311012,0.070498512,1,0,0,group_1/1375.mp4,-0.002769511,-0.000297619,1,0,0,61,0,61,0,1,response1disk_2,center_square_2,,
,,,,,,,,,,,,,,,,,,,,,,,,,,,,,,,,,,,,,1,,,,,,-2,820.3695,1,63,,,,,,,,,,,,,takakiyuri,2024-06-26_21h04.37.492,demoExp_V2,2021.2.3,MacIntel,128.2051282,,,,,,,,,-0.10750248,-0.039306382,1,0,0,group_1/0059.mp4,0.013128307,0.006758433,1,0,0,62,0,62,0,1,response5disk_2,center_square_2,,
,,,,,,,,,,,,,,,,,,,,,,,,,,,,,,,,,,,,,0.5,,,,,,2,825.3938,1,64,,,,,,,,,,,,,takakiyuri,2024-06-26_21h04.37.492,demoExp_V2,2021.2.3,MacIntel,128.2051282,,,,,,,,,0.130497685,-0.097325562,1,0,0,group_1/1169.mp4,-0.013541667,-0.008184524,1,0,0,63,0,63,0,1,response3disk_2,center_square_2,,
,,,,,,,,,,,,,,,,,,,,,,,,,,,,,,,,,,,,,0.7,,,,,,-1,832.7448,1,65,,,,,,,,,,,,,takakiyuri,2024-06-26_21h04.37.492,demoExp_V2,2021.2.3,MacIntel,128.2051282,,,,,,,,,-0.024202216,-0.140042163,1,0,0,group_1/1071.mp4,0.009490741,0.004298942,1,0,0,64,0,64,0,1,response5disk_2,center_square_2,,
,,,,,,,,,,,,,,,,,,,,,,,,,,,,,,,,,,,,,0.5,,,,,,-2,850.0404,1,66,,,,,,,,,,,,,takakiyuri,2024-06-26_21h04.37.492,demoExp_V2,2021.2.3,MacIntel,128.2051282,,,,,,,,,-0.141092097,-0.056861772,1,0,0,group_1/0283.mp4,-0.007390873,-0.007233796,1,0,0,65,0,65,0,1,response5disk_2,center_square_2,,
,,,,,,,,,,,,,,,,,,,,,,,,,,,,,,,,,,,,,0.8,,,,,,1,857.6822,1,67,,,,,,,,,,,,,takakiyuri,2024-06-26_21h04.37.492,demoExp_V2,2021.2.3,MacIntel,128.2051282,,,,,,,,,0.073119213,-0.119626323,1,0,0,group_1/0927.mp4,-0.003670635,-0.008349868,1,0,0,66,0,66,0,1,response3disk_2,center_square_2,,
,,,,,,,,,,,,,,,,,,,,,,,,,,,,,,,,,,,,,1,,,,,,2,866.0282,1,68,,,,,,,,,,,,,takakiyuri,2024-06-26_21h04.37.492,demoExp_V2,2021.2.3,MacIntel,128.2051282,,,,,,,,,0.14437004,-0.047619048,1,0,0,group_1/1158.mp4,0.009275794,0.004270007,1,0,0,67,0,67,0,1,response3disk_2,center_square_2,,
,,,,,,,,,,,,,,,,,,,,,,,,,,,,,,,,,,,,,0.6,,,,,,1,874.8937,1,69,,,,,,,,,,,,,takakiyuri,2024-06-26_21h04.37.492,demoExp_V2,2021.2.3,MacIntel,128.2051282,,,,,,,,,0.08910797,-0.136644345,1,0,0,group_1/2138.mp4,0.016005291,0.003096065,1,0,0,68,0,68,0,1,response3disk_2,center_square_2,,
,,,,,,,,,,,,,,,,,,,,,,,,,,,,,,,,,,,,,1,,,,,,-2,886.6773,1,70,,,,,,,,,,,,,takakiyuri,2024-06-26_21h04.37.492,demoExp_V2,2021.2.3,MacIntel,128.2051282,,,,,,,,,-0.111078042,-0.03411045,1,0,0,group_1/1292.mp4,0.002819114,0.003790509,1,0,0,69,0,69,0,1,response5disk_2,center_square_2,,
,,,,,,,,,,,,,,,,,,,,,,,,,,,,,,,,,,,,,0.5,,,,,,3,894.2356,1,71,,,,,,,,,,,,,takakiyuri,2024-06-26_21h04.37.492,demoExp_V2,2021.2.3,MacIntel,128.2051282,,,,,,,,,0.155286872,0.064773479,1,0,0,group_1/1768.mp4,-0.004621362,0.010623347,1,0,0,70,0,70,0,1,response1disk_2,center_square_2,,
,,,,,,,,,,,,,,,,,,,,,,,,,,,,,,,,,,,,,,,,,,,,,,,,,,,,,,,,,,,takakiyuri,2024-06-26_21h04.37.492,demoExp_V2,2021.2.3,MacIntel,128.2051282,,,,,,,,,,,,,,,,,,,,,,,,,,,space,3.8779
