sequence,mouse.x,mouse.y,mouse.leftButton,mouse.midButton,mouse.rightButton,mouse.clicked_name,mouse_2.x,mouse_2.y,mouse_2.leftButton,mouse_2.midButton,mouse_2.rightButton,mouse_2.clicked_name,mouse_12.x,mouse_12.y,mouse_12.leftButton,mouse_12.midButton,mouse_12.rightButton,mouse_12.clicked_name,mouse_3.x,mouse_3.y,mouse_3.leftButton,mouse_3.midButton,mouse_3.rightButton,mouse_3.clicked_name,mouse_11.x,mouse_11.y,mouse_11.leftButton,mouse_11.midButton,mouse_11.rightButton,mouse_11.clicked_name,mouse_8.x,mouse_8.y,mouse_8.leftButton,mouse_8.midButton,mouse_8.rightButton,mouse_8.clicked_name,cross_time[0],mouse_5.x,mouse_5.y,mouse_5.leftButton,mouse_5.midButton,mouse_5.rightButton,similarity,response_time,Pass,trialNumber,mouse_7.x,mouse_7.y,mouse_7.leftButton,mouse_7.midButton,mouse_7.rightButton,prac_trials.thisRepN,prac_trials.thisTrialN,prac_trials.thisN,prac_trials.thisIndex,prac_trials.ran,video_file,video_id,Prolific_ID*,date,expName,psychopyVersion,OS,frameRate,mouse_5.clicked_name,mouse_7.clicked_name,mouse_4.x,mouse_4.y,mouse_4.leftButton,mouse_4.midButton,mouse_4.rightButton,mouse_4.clicked_name,mouse_9.x,mouse_9.y,mouse_9.leftButton,mouse_9.midButton,mouse_9.rightButton,this_video,mouse_6.x,mouse_6.y,mouse_6.leftButton,mouse_6.midButton,mouse_6.rightButton,Experiment.thisRepN,Experiment.thisTrialN,Experiment.thisN,Experiment.thisIndex,Experiment.ran,mouse_9.clicked_name,mouse_6.clicked_name,key_resp.keys,key_resp.rt
"[""group_1/1768.mp4"",""group_1/0283.mp4"",""group_1/1292.mp4"",""group_1/1768.mp4"",""group_1/0927.mp4"",""group_1/0283.mp4"",""group_1/2138.mp4"",""group_1/1169.mp4"",""group_1/0283.mp4"",""group_1/1158.mp4"",""group_1/1768.mp4"",""group_1/1375.mp4"",""group_1/0283.mp4"",""group_1/1791.mp4"",""group_1/1768.mp4"",""group_1/0059.mp4"",""group_1/0283.mp4"",""group_1/1071.mp4"",""group_1/1768.mp4"",""group_1/1703.mp4"",""group_1/1292.mp4"",""group_1/1071.mp4"",""group_1/0927.mp4"",""group_1/0059.mp4"",""group_1/1292.mp4"",""group_1/1791.mp4"",""group_1/0927.mp4"",""group_1/1375.mp4"",""group_1/1292.mp4"",""group_1/1158.mp4"",""group_1/0927.mp4"",""group_1/1169.mp4"",""group_1/1292.mp4"",""group_1/2138.mp4"",""group_1/0927.mp4"",""group_1/1703.mp4"",""group_1/2138.mp4"",""group_1/1071.mp4"",""group_1/1169.mp4"",""group_1/0059.mp4"",""group_1/2138.mp4"",""group_1/1791.mp4"",""group_1/1169.mp4"",""group_1/1375.mp4"",""group_1/2138.mp4"",""group_1/1158.mp4"",""group_1/1169.mp4"",""group_1/1703.mp4"",""group_1/1158.mp4"",""group_1/1071.mp4"",""group_1/1375.mp4"",""group_1/0059.mp4"",""group_1/1158.mp4"",""group_1/1791.mp4"",""group_1/1375.mp4"",""group_1/1703.mp4"",""group_1/1791.mp4"",""group_1/1071.mp4"",""group_1/0059.mp4"",""group_1/1703.mp4"",""group_1/1071.mp4"",""group_1/0059.mp4"",""group_1/1791.mp4"",""group_1/1375.mp4"",""group_1/1158.mp4"",""group_1/1169.mp4"",""group_1/2138.mp4"",""group_1/0927.mp4"",""group_1/1292.mp4"",""group_1/0283.mp4"",""group_1/1703.mp4""]",0.053670635,-0.405795304,1,0,0,image,0.037458664,-0.407957176,1,0,0,image_2,0.026359954,-0.420225694,1,0,0,image,0.022147817,-0.399094742,1,0,0,image,0.022102348,-0.385094246,1,0,0,image,0.001012731,0.000111607,1,0,0,center_square_3,1,0.035181052,0.122003142,0,0,0,4,66.9721,1,1,0.035181052,0.122003142,0,0,0,0,0,0,0,1,videos/0001.mp4,1,takakiyuri,2024-07-04_00h36.02.635,demoExp_V2,2021.2.3,MacIntel,120.4819277,,,,,,,,,,,,,,,,,,,,,,,,,,,,
,,,,,,,,,,,,,,,,,,,,,,,,,,,,,,,,,,,,,0.9,0.158130787,0.056349206,1,0,0,3,70.8965,1,2,0.013678075,-0.003637566,1,0,0,0,1,1,1,1,videos/0002.mp4,2,takakiyuri,2024-07-04_00h36.02.635,demoExp_V2,2021.2.3,MacIntel,120.4819277,response1disk,center_square,,,,,,,,,,,,,,,,,,,,,,,,,,
,,,,,,,,,,,,,,,,,,,,,,,,,,,,,,,,,,,,,0.5,-0.097767857,-0.040480324,1,0,0,-2,81.0813,1,3,-0.004625496,-0.006510417,1,0,0,0,2,2,2,1,videos/0003.mp4,3,takakiyuri,2024-07-04_00h36.02.635,demoExp_V2,2021.2.3,MacIntel,120.4819277,response5disk,center_square,,,,,,,,,,,,,,,,,,,,,,,,,,
,,,,,,,,,,,,,,,,,,,,,,,,,,,,,,,,,,,,,1,-0.050128142,-0.127703373,1,0,0,-1,91.4645,1,4,0.002376819,-0.008990575,1,0,0,0,3,3,3,1,videos/0004.mp4,4,takakiyuri,2024-07-04_00h36.02.635,demoExp_V2,2021.2.3,MacIntel,120.4819277,response5disk,center_square,,,,,,,,,,,,,,,,,,,,,,,,,,
,,,,,,,,,,,,,,,,,,,,,,,,,,,,,,,,,,,,,0.8,-0.113549934,0.022941468,1,0,0,-3,98.7977,1,5,-0.000954861,-0.005377811,1,0,0,0,4,4,4,1,videos/0005.mp4,5,takakiyuri,2024-07-04_00h36.02.635,demoExp_V2,2021.2.3,MacIntel,120.4819277,response7disk,center_square,,,,,,,,,,,,,,,,,,,,,,,,,,
,,,,,,,,,,,,,,,,,,,,,,,,,,,,,,,,,,,,,1,-0.094754464,-0.038884755,1,0,0,-2,114.4475,1,6,0.00016121,-0.003840112,1,0,0,0,5,5,5,1,videos/0006.mp4,6,takakiyuri,2024-07-04_00h36.02.635,demoExp_V2,2021.2.3,MacIntel,120.4819277,response5disk,center_square,,,,,,,,,,,,,,,,,,,,,,,,,,
,,,,,,,,,,,,,,,,,,,,,,,,,,,,,,,-0.004298942,0.00240162,1,0,0,center_square_3,1,,,,,,4,130.4007,1,1,,,,,,,,,,,,,takakiyuri,2024-07-04_00h36.02.635,demoExp_V2,2021.2.3,MacIntel,120.4819277,,,-0.051901455,-0.406898975,1,0,0,image,0.013975694,0.161288856,0,0,0,group_1/1768.mp4,0.013975694,0.161288856,0,0,0,0,0,0,0,1,,,,
,,,,,,,,,,,,,,,,,,,,,,,,,,,,,,,,,,,,,0.8,,,,,,2,148.4155,1,2,,,,,,,,,,,,,takakiyuri,2024-07-04_00h36.02.635,demoExp_V2,2021.2.3,MacIntel,120.4819277,,,,,,,,,0.142199901,-0.032791832,1,0,0,group_1/0283.mp4,0.006407077,-0.00073578,1,0,0,1,0,1,0,1,response3disk_2,center_square_2,,
,,,,,,,,,,,,,,,,,,,,,,,,,,,,,,,,,,,,,1,,,,,,2,159.2639,1,3,,,,,,,,,,,,,takakiyuri,2024-07-04_00h36.02.635,demoExp_V2,2021.2.3,MacIntel,120.4819277,,,,,,,,,0.063740079,-0.028455688,1,0,0,group_1/1292.mp4,-0.007758763,-0.005328208,1,0,0,2,0,2,0,1,response3disk_2,center_square_2,,
,,,,,,,,,,,,,,,,,,,,,,,,,,,,,,,,,,,,,1,,,,,,3,166.9388,1,4,,,,,,,,,,,,,takakiyuri,2024-07-04_00h36.02.635,demoExp_V2,2021.2.3,MacIntel,120.4819277,,,,,,,,,0.154141865,0.102323082,1,0,0,group_1/1768.mp4,-0.014781746,-0.000529101,1,0,0,3,0,3,0,1,response1disk_2,center_square_2,,
,,,,,,,,,,,,,,,,,,,,,,,,,,,,,,,,,,,,,0.5,,,,,,-2,174.8136,1,5,,,,,,,,,,,,,takakiyuri,2024-07-04_00h36.02.635,demoExp_V2,2021.2.3,MacIntel,120.4819277,,,,,,,,,-0.102674438,-0.028058862,1,0,0,group_1/0927.mp4,-0.001107804,0.000491898,1,0,0,4,0,4,0,1,response5disk_2,center_square_2,,
,,,,,,,,,,,,,,,,,,,,,,,,,,,,,,,,,,,,,0.6,,,,,,2,193.4046,1,6,,,,,,,,,,,,,takakiyuri,2024-07-04_00h36.02.635,demoExp_V2,2021.2.3,MacIntel,120.4819277,,,,,,,,,0.110867229,-0.05151703,1,0,0,group_1/0283.mp4,0.005282738,-0.00228588,1,0,0,5,0,5,0,1,response3disk_2,center_square_2,,
,,,,,,,,,,,,,,,,,,,,,,,,,,,,,,,,,,,,,1,,,,,,2,203.03,1,7,,,,,,,,,,,,,takakiyuri,2024-07-04_00h36.02.635,demoExp_V2,2021.2.3,MacIntel,120.4819277,,,,,,,,,0.154943783,-0.002070933,1,0,0,group_1/2138.mp4,0.015761409,0.001868386,1,0,0,6,0,6,0,1,response3disk_2,center_square_2,,
,,,,,,,,,,,,,,,,,,,,,,,,,,,,,,,,,,,,,0.6,,,,,,-1,209.8883,1,8,,,,,,,,,,,,,takakiyuri,2024-07-04_00h36.02.635,demoExp_V2,2021.2.3,MacIntel,120.4819277,,,,,,,,,-0.063934358,-0.109255126,1,0,0,group_1/1169.mp4,0.012144511,0.013934358,1,0,0,7,0,7,0,1,response5disk_2,center_square_2,,
,,,,,,,,,,,,,,,,,,,,,,,,,,,,,,,,,,,,,1,,,,,,-1,228.0048,1,9,,,,,,,,,,,,,takakiyuri,2024-07-04_00h36.02.635,demoExp_V2,2021.2.3,MacIntel,120.4819277,,,,,,,,,-0.082130456,-0.112297454,1,0,0,group_1/0283.mp4,0.000892857,0.003939319,1,0,0,8,0,8,0,1,response5disk_2,center_square_2,,
,,,,,,,,,,,,,,,,,,,,,,,,,,,,,,,,,,,,,0.6,,,,,,-1,236.1253,1,10,,,,,,,,,,,,,takakiyuri,2024-07-04_00h36.02.635,demoExp_V2,2021.2.3,MacIntel,120.4819277,,,,,,,,,-0.019469246,-0.068262235,1,0,0,group_1/1158.mp4,0.009701554,0.008916171,1,0,0,9,0,9,0,1,response5disk_2,center_square_2,,
,,,,,,,,,,,,,,,,,,,,,,,,,,,,,,,,,,,,,0.7,,,,,,-2,243.6501,1,11,,,,,,,,,,,,,takakiyuri,2024-07-04_00h36.02.635,demoExp_V2,2021.2.3,MacIntel,120.4819277,,,,,,,,,-0.089575066,-0.02401207,1,0,0,group_1/1768.mp4,-0.014926422,0.005071925,1,0,0,10,0,10,0,1,response5disk_2,center_square_2,,
,,,,,,,,,,,,,,,,,,,,,,,,,,,,,,,,,,,,,0.6,,,,,,2,250.2505,1,12,,,,,,,,,,,,,takakiyuri,2024-07-04_00h36.02.635,demoExp_V2,2021.2.3,MacIntel,120.4819277,,,,,,,,,0.093150628,-0.016195437,1,0,0,group_1/1375.mp4,-0.010706019,0.012342923,1,0,0,11,0,11,0,1,response3disk_2,center_square_2,,
,,,,,,,,,,,,,,,,,,,,,,,,,,,,,,,,,,,,,0.7,,,,,,-2,267.4334,1,13,,,,,,,,,,,,,takakiyuri,2024-07-04_00h36.02.635,demoExp_V2,2021.2.3,MacIntel,120.4819277,,,,,,,,,-0.130753968,-0.048214286,1,0,0,group_1/0283.mp4,0.010999504,-0.008630952,1,0,0,12,0,12,0,1,response5disk_2,center_square_2,,
,,,,,,,,,,,,,,,,,,,,,,,,,,,,,,,,,,,,,0.6,,,,,,-2,272.4083,1,14,,,,,,,,,,,,,takakiyuri,2024-07-04_00h36.02.635,demoExp_V2,2021.2.3,MacIntel,120.4819277,,,,,,,,,-0.085763889,-0.031717097,1,0,0,group_1/1791.mp4,-0.008068783,0.003166336,1,0,0,13,0,13,0,1,response5disk_2,center_square_2,,
,,,,,,,,,,,,,,,,,,,,,,,,,,,,,,,,,,,,,0.9,,,,,,-2,280.3999,1,15,,,,,,,,,,,,,takakiyuri,2024-07-04_00h36.02.635,demoExp_V2,2021.2.3,MacIntel,120.4819277,,,,,,,,,-0.079249339,-0.050119874,1,0,0,group_1/1768.mp4,0.003249008,0.003480489,1,0,0,14,0,14,0,1,response5disk_2,center_square_2,,
,,,,,,,,,,,,,,,,,,,,,,,,,,,,,,,,,,,,,0.8,,,,,,-3,285.2248,1,16,,,,,,,,,,,,,takakiyuri,2024-07-04_00h36.02.635,demoExp_V2,2021.2.3,MacIntel,120.4819277,,,,,,,,,-0.105344742,0.074768519,1,0,0,group_1/0059.mp4,-0.002616567,-0.002232143,1,0,0,15,0,15,0,1,response7disk_2,center_square_2,,
,,,,,,,,,,,,,,,,,,,,,,,,,,,,,,,,,,,,,0.6,,,,,,-3,302.3997,1,17,,,,,,,,,,,,,takakiyuri,2024-07-04_00h36.02.635,demoExp_V2,2021.2.3,MacIntel,120.4819277,,,,,,,,,-0.109275794,0.049136078,1,0,0,group_1/0283.mp4,0.006299603,-0.0078125,1,0,0,16,0,16,0,1,response7disk_2,center_square_2,,
,,,,,,,,,,,,,,,,,,,,,,,,,,,,,,,,,,,,,1,,,,,,-2,307.4579,1,18,,,,,,,,,,,,,takakiyuri,2024-07-04_00h36.02.635,demoExp_V2,2021.2.3,MacIntel,120.4819277,,,,,,,,,-0.094824735,-0.048110946,1,0,0,group_1/1071.mp4,-0.003401951,0.005063657,1,0,0,17,0,17,0,1,response5disk_2,center_square_2,,
,,,,,,,,,,,,,,,,,,,,,,,,,,,,,,,,,,,,,0.7,,,,,,-2,314.5486,1,19,,,,,,,,,,,,,takakiyuri,2024-07-04_00h36.02.635,demoExp_V2,2021.2.3,MacIntel,120.4819277,,,,,,,,,-0.176603836,-0.045205026,1,0,0,group_1/1768.mp4,-0.003633433,0.000442295,1,0,0,18,0,18,0,1,response5disk_2,center_square_2,,
,,,,,,,,,,,,,,,,,,,,,,,,,,,,,,,,,,,,,1,,,,,,3,323.5662,1,20,,,,,,,,,,,,,takakiyuri,2024-07-04_00h36.02.635,demoExp_V2,2021.2.3,MacIntel,120.4819277,,,,,,,,,0.160978836,0.036582341,1,0,0,group_1/1703.mp4,0.016001157,0.009726356,1,0,0,19,0,19,0,1,response1disk_2,center_square_2,,
,,,,,,,,,,,,,,,,,,,,,,,,,,,,,,,,,,,,,0.9,,,,,,3,334.4492,1,21,,,,,,,,,,,,,takakiyuri,2024-07-04_00h36.02.635,demoExp_V2,2021.2.3,MacIntel,120.4819277,,,,,,,,,0.116402116,0.044696594,1,0,0,group_1/1292.mp4,0.011379795,0.006171462,1,0,0,20,0,20,0,1,response1disk_2,center_square_2,,
,,,,,,,,,,,,,,,,,,,,,,,,,,,,,,,,,,,,,0.9,,,,,,-2,339.9243,1,22,,,,,,,,,,,,,takakiyuri,2024-07-04_00h36.02.635,demoExp_V2,2021.2.3,MacIntel,120.4819277,,,,,,,,,-0.070502646,-0.047631448,1,0,0,group_1/1071.mp4,0.003889716,-0.003385417,1,0,0,21,0,21,0,1,response5disk_2,center_square_2,,
,,,,,,,,,,,,,,,,,,,,,,,,,,,,,,,,,,,,,0.6,,,,,,-1,346.9908,1,23,,,,,,,,,,,,,takakiyuri,2024-07-04_00h36.02.635,demoExp_V2,2021.2.3,MacIntel,120.4819277,,,,,,,,,-0.059924769,-0.092997685,1,0,0,group_1/0927.mp4,-0.008440807,-0.01264881,1,0,0,22,0,22,0,1,response5disk_2,center_square_2,,
,,,,,,,,,,,,,,,,,,,,,,,,,,,,,,,,,,,,,0.8,,,,,,1,353.374,1,24,,,,,,,,,,,,,takakiyuri,2024-07-04_00h36.02.635,demoExp_V2,2021.2.3,MacIntel,120.4819277,,,,,,,,,0.078993056,-0.116823743,1,0,0,group_1/0059.mp4,0.014409722,-0.001120205,1,0,0,23,0,23,0,1,response3disk_2,center_square_2,,
,,,,,,,,,,,,,,,,,,,,,,,,,,,,,,,,,,,,,1,,,,,,-2,364.7906,1,25,,,,,,,,,,,,,takakiyuri,2024-07-04_00h36.02.635,demoExp_V2,2021.2.3,MacIntel,120.4819277,,,,,,,,,-0.083478009,-0.038665675,1,0,0,group_1/1292.mp4,-0.005398479,0.008420139,1,0,0,24,0,24,0,1,response5disk_2,center_square_2,,
,,,,,,,,,,,,,,,,,,,,,,,,,,,,,,,,,,,,,0.9,,,,,,-1,370.5031,1,26,,,,,,,,,,,,,takakiyuri,2024-07-04_00h36.02.635,demoExp_V2,2021.2.3,MacIntel,120.4819277,,,,,,,,,-0.043721065,-0.087421462,1,0,0,group_1/1791.mp4,0.00396412,-0.007779431,1,0,0,25,0,25,0,1,response5disk_2,center_square_2,,
,,,,,,,,,,,,,,,,,,,,,,,,,,,,,,,,,,,,,0.8,,,,,,-2,377.6533,1,27,,,,,,,,,,,,,takakiyuri,2024-07-04_00h36.02.635,demoExp_V2,2021.2.3,MacIntel,120.4819277,,,,,,,,,-0.115277778,-0.027612434,1,0,0,group_1/0927.mp4,-0.01020172,0.007750496,1,0,0,26,0,26,0,1,response5disk_2,center_square_2,,
,,,,,,,,,,,,,,,,,,,,,,,,,,,,,,,,,,,,,0.8,,,,,,-3,383.0112,1,28,,,,,,,,,,,,,takakiyuri,2024-07-04_00h36.02.635,demoExp_V2,2021.2.3,MacIntel,120.4819277,,,,,,,,,-0.116207837,0.037967097,1,0,0,group_1/1375.mp4,0.011999835,-0.009399802,1,0,0,27,0,27,0,1,response7disk_2,center_square_2,,
,,,,,,,,,,,,,,,,,,,,,,,,,,,,,,,,,,,,,0.9,,,,,,2,393.6777,1,29,,,,,,,,,,,,,takakiyuri,2024-07-04_00h36.02.635,demoExp_V2,2021.2.3,MacIntel,120.4819277,,,,,,,,,0.102575231,-0.028034061,1,0,0,group_1/1292.mp4,0.002037864,0.003955853,1,0,0,28,0,28,0,1,response3disk_2,center_square_2,,
,,,,,,,,,,,,,,,,,,,,,,,,,,,,,,,,,,,,,0.7,,,,,,-2,401.4362,1,30,,,,,,,,,,,,,takakiyuri,2024-07-04_00h36.02.635,demoExp_V2,2021.2.3,MacIntel,120.4819277,,,,,,,,,-0.080092593,-0.033395337,1,0,0,group_1/1158.mp4,-0.005278604,0.01020172,1,0,0,29,0,29,0,1,response5disk_2,center_square_2,,
,,,,,,,,,,,,,,,,,,,,,,,,,,,,,,,,,,,,,1,,,,,,-2,410.1278,1,31,,,,,,,,,,,,,takakiyuri,2024-07-04_00h36.02.635,demoExp_V2,2021.2.3,MacIntel,120.4819277,,,,,,,,,-0.095560516,-0.042857143,1,0,0,group_1/0927.mp4,0.000665509,-0.006593089,1,0,0,30,0,30,0,1,response5disk_2,center_square_2,,
,,,,,,,,,,,,,,,,,,,,,,,,,,,,,,,,,,,,,0.9,,,,,,1,415.4608,1,32,,,,,,,,,,,,,takakiyuri,2024-07-04_00h36.02.635,demoExp_V2,2021.2.3,MacIntel,120.4819277,,,,,,,,,0.062752149,-0.092493386,1,0,0,group_1/1169.mp4,0.003187004,0.014244378,1,0,0,31,0,31,0,1,response3disk_2,center_square_2,,
,,,,,,,,,,,,,,,,,,,,,,,,,,,,,,,,,,,,,0.6,,,,,,-2,428.4525,1,33,,,,,,,,,,,,,takakiyuri,2024-07-04_00h36.02.635,demoExp_V2,2021.2.3,MacIntel,120.4819277,,,,,,,,,-0.11984127,-0.027455357,1,0,0,group_1/1292.mp4,0.002083333,0.012570271,1,0,0,32,0,32,0,1,response5disk_2,center_square_2,,
,,,,,,,,,,,,,,,,,,,,,,,,,,,,,,,,,,,,,1,,,,,,-1,437.0271,1,34,,,,,,,,,,,,,takakiyuri,2024-07-04_00h36.02.635,demoExp_V2,2021.2.3,MacIntel,120.4819277,,,,,,,,,-0.04327877,-0.073718585,1,0,0,group_1/2138.mp4,0.012057705,-0.00557209,1,0,0,33,0,33,0,1,response5disk_2,center_square_2,,
,,,,,,,,,,,,,,,,,,,,,,,,,,,,,,,,,,,,,0.9,,,,,,-2,444.1855,1,35,,,,,,,,,,,,,takakiyuri,2024-07-04_00h36.02.635,demoExp_V2,2021.2.3,MacIntel,120.4819277,,,,,,,,,-0.077943122,-0.043084491,1,0,0,group_1/0927.mp4,-0.007039517,-0.005505952,1,0,0,34,0,34,0,1,response5disk_2,center_square_2,,
,,,,,,,,,,,,,,,,,,,,,,,,,,,,,,,,,,,,,0.6,,,,,,-3,452.177,1,36,,,,,,,,,,,,,takakiyuri,2024-07-04_00h36.02.635,demoExp_V2,2021.2.3,MacIntel,120.4819277,,,,,,,,,-0.106774967,0.029720569,1,0,0,group_1/1703.mp4,-0.00125248,-0.000359623,1,0,0,35,0,35,0,1,response7disk_2,center_square_2,,
,,,,,,,,,,,,,,,,,,,,,,,,,,,,,,,,,,,,,1,,,,,,-1,460.8435,1,37,,,,,,,,,,,,,takakiyuri,2024-07-04_00h36.02.635,demoExp_V2,2021.2.3,MacIntel,120.4819277,,,,,,,,,-0.028484623,-0.088781415,1,0,0,group_1/2138.mp4,0.003670635,0.003947586,1,0,0,36,0,36,0,1,response5disk_2,center_square_2,,
,,,,,,,,,,,,,,,,,,,,,,,,,,,,,,,,,,,,,0.9,,,,,,-2,466.7684,1,38,,,,,,,,,,,,,takakiyuri,2024-07-04_00h36.02.635,demoExp_V2,2021.2.3,MacIntel,120.4819277,,,,,,,,,-0.092729001,-0.041021825,1,0,0,group_1/1071.mp4,0.001128472,0.000186012,1,0,0,37,0,37,0,1,response5disk_2,center_square_2,,
,,,,,,,,,,,,,,,,,,,,,,,,,,,,,,,,,,,,,0.9,,,,,,-1,472.1017,1,39,,,,,,,,,,,,,takakiyuri,2024-07-04_00h36.02.635,demoExp_V2,2021.2.3,MacIntel,120.4819277,,,,,,,,,-0.045192626,-0.093274636,1,0,0,group_1/1169.mp4,0.004530423,-0.009296462,1,0,0,38,0,38,0,1,response5disk_2,center_square_2,,
,,,,,,,,,,,,,,,,,,,,,,,,,,,,,,,,,,,,,0.5,,,,,,1,476.9518,1,40,,,,,,,,,,,,,takakiyuri,2024-07-04_00h36.02.635,demoExp_V2,2021.2.3,MacIntel,120.4819277,,,,,,,,,0.026145007,-0.09661045,1,0,0,group_1/0059.mp4,0.00495205,0.010152116,1,0,0,39,0,39,0,1,response3disk_2,center_square_2,,
,,,,,,,,,,,,,,,,,,,,,,,,,,,,,,,,,,,,,0.9,,,,,,-2,485.084,1,41,,,,,,,,,,,,,takakiyuri,2024-07-04_00h36.02.635,demoExp_V2,2021.2.3,MacIntel,120.4819277,,,,,,,,,-0.091745205,-0.046527778,1,0,0,group_1/2138.mp4,0.013996362,0.003406085,1,0,0,40,0,40,0,1,response5disk_2,center_square_2,,
,,,,,,,,,,,,,,,,,,,,,,,,,,,,,,,,,,,,,1,,,,,,-2,489.985,1,42,,,,,,,,,,,,,takakiyuri,2024-07-04_00h36.02.635,demoExp_V2,2021.2.3,MacIntel,120.4819277,,,,,,,,,-0.102075066,-0.050996197,1,0,0,group_1/1791.mp4,0.008403604,0.005357143,1,0,0,41,0,41,0,1,response5disk_2,center_square_2,,
,,,,,,,,,,,,,,,,,,,,,,,,,,,,,,,,,,,,,0.7,,,,,,-2,494.6099,1,43,,,,,,,,,,,,,takakiyuri,2024-07-04_00h36.02.635,demoExp_V2,2021.2.3,MacIntel,120.4819277,,,,,,,,,-0.057457011,-0.021370701,1,0,0,group_1/1169.mp4,0.001988261,0.000810185,1,0,0,42,0,42,0,1,response5disk_2,center_square_2,,
,,,,,,,,,,,,,,,,,,,,,,,,,,,,,,,,,,,,,0.5,,,,,,-2,499.7765,1,44,,,,,,,,,,,,,takakiyuri,2024-07-04_00h36.02.635,demoExp_V2,2021.2.3,MacIntel,120.4819277,,,,,,,,,-0.116654266,-0.042183366,1,0,0,group_1/1375.mp4,0.007539683,-0.005390212,1,0,0,43,0,43,0,1,response5disk_2,center_square_2,,
,,,,,,,,,,,,,,,,,,,,,,,,,,,,,,,,,,,,,0.6,,,,,,-1,507.668,1,45,,,,,,,,,,,,,takakiyuri,2024-07-04_00h36.02.635,demoExp_V2,2021.2.3,MacIntel,120.4819277,,,,,,,,,-0.052054398,-0.156361607,1,0,0,group_1/2138.mp4,0.011578208,0.004625496,1,0,0,44,0,44,0,1,response5disk_2,center_square_2,,
,,,,,,,,,,,,,,,,,,,,,,,,,,,,,,,,,,,,,0.5,,,,,,-2,517.7514,1,46,,,,,,,,,,,,,takakiyuri,2024-07-04_00h36.02.635,demoExp_V2,2021.2.3,MacIntel,120.4819277,,,,,,,,,-0.088520999,-0.060391865,1,0,0,group_1/1158.mp4,0.009589947,-0.000934193,1,0,0,45,0,45,0,1,response5disk_2,center_square_2,,
,,,,,,,,,,,,,,,,,,,,,,,,,,,,,,,,,,,,,0.7,,,,,,1,525.3514,1,47,,,,,,,,,,,,,takakiyuri,2024-07-04_00h36.02.635,demoExp_V2,2021.2.3,MacIntel,120.4819277,,,,,,,,,0.03999256,-0.123197751,1,0,0,group_1/1169.mp4,0.00250496,-0.008192791,1,0,0,46,0,46,0,1,response3disk_2,center_square_2,,
,,,,,,,,,,,,,,,,,,,,,,,,,,,,,,,,,,,,,0.7,,,,,,-2,533.568,1,48,,,,,,,,,,,,,takakiyuri,2024-07-04_00h36.02.635,demoExp_V2,2021.2.3,MacIntel,120.4819277,,,,,,,,,-0.098491237,-0.025500165,1,0,0,group_1/1703.mp4,-0.000260417,0.004716435,1,0,0,47,0,47,0,1,response5disk_2,center_square_2,,
,,,,,,,,,,,,,,,,,,,,,,,,,,,,,,,,,,,,,0.5,,,,,,-2,541.1011,1,49,,,,,,,,,,,,,takakiyuri,2024-07-04_00h36.02.635,demoExp_V2,2021.2.3,MacIntel,120.4819277,,,,,,,,,-0.079232804,-0.046957672,1,0,0,group_1/1158.mp4,0.002901786,-0.007564484,1,0,0,48,0,48,0,1,response5disk_2,center_square_2,,
,,,,,,,,,,,,,,,,,,,,,,,,,,,,,,,,,,,,,0.7,,,,,,-2,547.8345,1,50,,,,,,,,,,,,,takakiyuri,2024-07-04_00h36.02.635,demoExp_V2,2021.2.3,MacIntel,120.4819277,,,,,,,,,-0.071275628,-0.030224868,1,0,0,group_1/1071.mp4,-0.009370866,-0.007638889,1,0,0,49,0,49,0,1,response5disk_2,center_square_2,,
,,,,,,,,,,,,,,,,,,,,,,,,,,,,,,,,,,,,,0.9,,,,,,-2,553.4262,1,51,,,,,,,,,,,,,takakiyuri,2024-07-04_00h36.02.635,demoExp_V2,2021.2.3,MacIntel,120.4819277,,,,,,,,,-0.069849537,-0.03287037,1,0,0,group_1/1375.mp4,0.003831845,0.00172371,1,0,0,50,0,50,0,1,response5disk_2,center_square_2,,
,,,,,,,,,,,,,,,,,,,,,,,,,,,,,,,,,,,,,0.7,,,,,,-1,557.8591,1,52,,,,,,,,,,,,,takakiyuri,2024-07-04_00h36.02.635,demoExp_V2,2021.2.3,MacIntel,120.4819277,,,,,,,,,-0.040459656,-0.102025463,1,0,0,group_1/0059.mp4,-0.00082672,-0.006717097,1,0,0,51,0,51,0,1,response5disk_2,center_square_2,,
,,,,,,,,,,,,,,,,,,,,,,,,,,,,,,,,,,,,,1,,,,,,-2,566.409,1,53,,,,,,,,,,,,,takakiyuri,2024-07-04_00h36.02.635,demoExp_V2,2021.2.3,MacIntel,120.4819277,,,,,,,,,-0.066191303,-0.037231316,1,0,0,group_1/1158.mp4,0.004092262,-0.011681548,1,0,0,52,0,52,0,1,response5disk_2,center_square_2,,
,,,,,,,,,,,,,,,,,,,,,,,,,,,,,,,,,,,,,0.8,,,,,,-2,569.4007,1,54,,,,,,,,,,,,,takakiyuri,2024-07-04_00h36.02.635,demoExp_V2,2021.2.3,MacIntel,120.4819277,,,,,,,,,-0.078897983,-0.035160384,1,0,0,group_1/1791.mp4,0.002819114,-0.012285053,1,0,0,53,0,53,0,1,response5disk_2,center_square_2,,
,,,,,,,,,,,,,,,,,,,,,,,,,,,,,,,,,,,,,0.8,,,,,,-2,574.1756,1,55,,,,,,,,,,,,,takakiyuri,2024-07-04_00h36.02.635,demoExp_V2,2021.2.3,MacIntel,120.4819277,,,,,,,,,-0.106365741,-0.065451389,1,0,0,group_1/1375.mp4,0.010623347,5.78704E-05,1,0,0,54,0,54,0,1,response5disk_2,center_square_2,,
,,,,,,,,,,,,,,,,,,,,,,,,,,,,,,,,,,,,,1,,,,,,-1,582.5089,1,56,,,,,,,,,,,,,takakiyuri,2024-07-04_00h36.02.635,demoExp_V2,2021.2.3,MacIntel,120.4819277,,,,,,,,,-0.089050099,-0.147738922,1,0,0,group_1/1703.mp4,0.00666336,-0.016203704,1,0,0,55,0,55,0,1,response5disk_2,center_square_2,,
,,,,,,,,,,,,,,,,,,,,,,,,,,,,,,,,,,,,,0.6,,,,,,-1,586.1255,1,57,,,,,,,,,,,,,takakiyuri,2024-07-04_00h36.02.635,demoExp_V2,2021.2.3,MacIntel,120.4819277,,,,,,,,,-0.065988757,-0.092514054,1,0,0,group_1/1791.mp4,0.010160384,0.000913525,1,0,0,56,0,56,0,1,response5disk_2,center_square_2,,
,,,,,,,,,,,,,,,,,,,,,,,,,,,,,,,,,,,,,0.7,,,,,,-2,593.5421,1,58,,,,,,,,,,,,,takakiyuri,2024-07-04_00h36.02.635,demoExp_V2,2021.2.3,MacIntel,120.4819277,,,,,,,,,-0.117683532,-0.049925595,1,0,0,group_1/1071.mp4,0.005873843,-0.014955357,1,0,0,57,0,57,0,1,response5disk_2,center_square_2,,
,,,,,,,,,,,,,,,,,,,,,,,,,,,,,,,,,,,,,0.9,,,,,,-2,602.0337,1,59,,,,,,,,,,,,,takakiyuri,2024-07-04_00h36.02.635,demoExp_V2,2021.2.3,MacIntel,120.4819277,,,,,,,,,-0.103451554,-0.032477679,1,0,0,group_1/0059.mp4,0.001293816,-0.014599868,1,0,0,58,0,58,0,1,response5disk_2,center_square_2,,
,,,,,,,,,,,,,,,,,,,,,,,,,,,,,,,,,,,,,1,,,,,,-1,610.3461,1,60,,,,,,,,,,,,,takakiyuri,2024-07-04_00h36.02.635,demoExp_V2,2021.2.3,MacIntel,120.4819277,,,,,,,,,-0.040244709,-0.096581515,1,0,0,group_1/1703.mp4,0.000475364,-0.015079365,1,0,0,59,0,59,0,1,response5disk_2,center_square_2,,
,,,,,,,,,,,,,,,,,,,,,,,,,,,,,,,,,,,,,0.5,,,,,,-2,614.1044,1,61,,,,,,,,,,,,,takakiyuri,2024-07-04_00h36.02.635,demoExp_V2,2021.2.3,MacIntel,120.4819277,,,,,,,,,-0.075640708,-0.022995205,1,0,0,group_1/1071.mp4,0.009527943,-0.012107308,1,0,0,60,0,60,0,1,response5disk_2,center_square_2,,
,,,,,,,,,,,,,,,,,,,,,,,,,,,,,,,,,,,,,0.9,,,,,,-2,619.5376,1,62,,,,,,,,,,,,,takakiyuri,2024-07-04_00h36.02.635,demoExp_V2,2021.2.3,MacIntel,120.4819277,,,,,,,,,-0.074640377,-0.041898148,1,0,0,group_1/0059.mp4,0.014281581,0.006320271,1,0,0,61,0,61,0,1,response5disk_2,center_square_2,,
,,,,,,,,,,,,,,,,,,,,,,,,,,,,,,,,,,,,,0.6,,,,,,-2,624.1377,1,63,,,,,,,,,,,,,takakiyuri,2024-07-04_00h36.02.635,demoExp_V2,2021.2.3,MacIntel,120.4819277,,,,,,,,,-0.071647652,-0.039769345,1,0,0,group_1/1791.mp4,0.006378142,0.003191138,1,0,0,62,0,62,0,1,response5disk_2,center_square_2,,
,,,,,,,,,,,,,,,,,,,,,,,,,,,,,,,,,,,,,0.5,,,,,,-2,627.7624,1,64,,,,,,,,,,,,,takakiyuri,2024-07-04_00h36.02.635,demoExp_V2,2021.2.3,MacIntel,120.4819277,,,,,,,,,-0.105076058,-0.062326389,1,0,0,group_1/1375.mp4,0.009908234,-0.009399802,1,0,0,63,0,63,0,1,response5disk_2,center_square_2,,
,,,,,,,,,,,,,,,,,,,,,,,,,,,,,,,,,,,,,0.6,,,,,,-2,636.3373,1,65,,,,,,,,,,,,,takakiyuri,2024-07-04_00h36.02.635,demoExp_V2,2021.2.3,MacIntel,120.4819277,,,,,,,,,-0.068109292,-0.026674107,1,0,0,group_1/1158.mp4,0.002017196,-0.004158399,1,0,0,64,0,64,0,1,response5disk_2,center_square_2,,
,,,,,,,,,,,,,,,,,,,,,,,,,,,,,,,,,,,,,1,,,,,,1,641.0291,1,66,,,,,,,,,,,,,takakiyuri,2024-07-04_00h36.02.635,demoExp_V2,2021.2.3,MacIntel,120.4819277,,,,,,,,,0.02296627,-0.100223214,1,0,0,group_1/1169.mp4,0.007899306,-0.001913856,1,0,0,65,0,65,0,1,response3disk_2,center_square_2,,
,,,,,,,,,,,,,,,,,,,,,,,,,,,,,,,,,,,,,1,,,,,,-2,649.7197,1,67,,,,,,,,,,,,,takakiyuri,2024-07-04_00h36.02.635,demoExp_V2,2021.2.3,MacIntel,120.4819277,,,,,,,,,-0.095775463,-0.048177083,1,0,0,group_1/2138.mp4,0.00838707,0.011474868,1,0,0,66,0,66,0,1,response5disk_2,center_square_2,,
,,,,,,,,,,,,,,,,,,,,,,,,,,,,,,,,,,,,,0.6,,,,,,-2,656.7123,1,68,,,,,,,,,,,,,takakiyuri,2024-07-04_00h36.02.635,demoExp_V2,2021.2.3,MacIntel,120.4819277,,,,,,,,,-0.104662698,-0.036073909,1,0,0,group_1/0927.mp4,0.007357804,-0.002910053,1,0,0,67,0,67,0,1,response5disk_2,center_square_2,,
,,,,,,,,,,,,,,,,,,,,,,,,,,,,,,,,,,,,,0.8,,,,,,-3,667.2611,1,69,,,,,,,,,,,,,takakiyuri,2024-07-04_00h36.02.635,demoExp_V2,2021.2.3,MacIntel,120.4819277,,,,,,,,,-0.10505539,0.064417989,1,0,0,group_1/1292.mp4,-0.002967923,0.012681878,1,0,0,68,0,68,0,1,response7disk_2,center_square_2,,
,,,,,,,,,,,,,,,,,,,,,,,,,,,,,,,,,,,,,0.6,,,,,,-1,684.4286,1,70,,,,,,,,,,,,,takakiyuri,2024-07-04_00h36.02.635,demoExp_V2,2021.2.3,MacIntel,120.4819277,,,,,,,,,-0.039823082,-0.142824074,1,0,0,group_1/0283.mp4,-0.002116402,0.00291832,1,0,0,69,0,69,0,1,response5disk_2,center_square_2,,
,,,,,,,,,,,,,,,,,,,,,,,,,,,,,,,,,,,,,0.6,,,,,,-1,692.4451,1,71,,,,,,,,,,,,,takakiyuri,2024-07-04_00h36.02.635,demoExp_V2,2021.2.3,MacIntel,120.4819277,,,,,,,,,-0.06953125,-0.102161872,1,0,0,group_1/1703.mp4,-0.001202877,0.008531746,1,0,0,70,0,70,0,1,response5disk_2,center_square_2,,
,,,,,,,,,,,,,,,,,,,,,,,,,,,,,,,,,,,,,,,,,,,,,,,,,,,,,,,,,,,takakiyuri,2024-07-04_00h36.02.635,demoExp_V2,2021.2.3,MacIntel,120.4819277,,,,,,,,,,,,,,,,,,,,,,,,,,,space,1.7535
