sequence,mouse.x,mouse.y,mouse.leftButton,mouse.midButton,mouse.rightButton,mouse.clicked_name,mouse_2.x,mouse_2.y,mouse_2.leftButton,mouse_2.midButton,mouse_2.rightButton,mouse_2.clicked_name,mouse_12.x,mouse_12.y,mouse_12.leftButton,mouse_12.midButton,mouse_12.rightButton,mouse_12.clicked_name,mouse_3.x,mouse_3.y,mouse_3.leftButton,mouse_3.midButton,mouse_3.rightButton,mouse_3.clicked_name,mouse_11.x,mouse_11.y,mouse_11.leftButton,mouse_11.midButton,mouse_11.rightButton,mouse_11.clicked_name,mouse_8.x,mouse_8.y,mouse_8.leftButton,mouse_8.midButton,mouse_8.rightButton,mouse_8.clicked_name,cross_time[0],mouse_5.x,mouse_5.y,mouse_5.leftButton,mouse_5.midButton,mouse_5.rightButton,similarity,response_time,Pass,trialNumber,mouse_7.x,mouse_7.y,mouse_7.leftButton,mouse_7.midButton,mouse_7.rightButton,prac_trials.thisRepN,prac_trials.thisTrialN,prac_trials.thisN,prac_trials.thisIndex,prac_trials.ran,video_file,video_id,Prolific_ID*,date,expName,psychopyVersion,OS,frameRate,mouse_5.clicked_name,mouse_7.clicked_name,mouse_4.x,mouse_4.y,mouse_4.leftButton,mouse_4.midButton,mouse_4.rightButton,mouse_4.clicked_name,mouse_9.x,mouse_9.y,mouse_9.leftButton,mouse_9.midButton,mouse_9.rightButton,this_video,mouse_6.x,mouse_6.y,mouse_6.leftButton,mouse_6.midButton,mouse_6.rightButton,Experiment.thisRepN,Experiment.thisTrialN,Experiment.thisN,Experiment.thisIndex,Experiment.ran,mouse_9.clicked_name,mouse_6.clicked_name,key_resp.keys,key_resp.rt
"[""group_1/1071.mp4"",""group_1/1703.mp4"",""group_1/2138.mp4"",""group_1/1071.mp4"",""group_1/1158.mp4"",""group_1/1703.mp4"",""group_1/1768.mp4"",""group_1/1292.mp4"",""group_1/1703.mp4"",""group_1/1375.mp4"",""group_1/1071.mp4"",""group_1/0283.mp4"",""group_1/1703.mp4"",""group_1/0059.mp4"",""group_1/1071.mp4"",""group_1/0927.mp4"",""group_1/1703.mp4"",""group_1/1791.mp4"",""group_1/1071.mp4"",""group_1/1169.mp4"",""group_1/2138.mp4"",""group_1/1791.mp4"",""group_1/1158.mp4"",""group_1/0927.mp4"",""group_1/2138.mp4"",""group_1/0059.mp4"",""group_1/1158.mp4"",""group_1/0283.mp4"",""group_1/2138.mp4"",""group_1/1375.mp4"",""group_1/1158.mp4"",""group_1/1292.mp4"",""group_1/2138.mp4"",""group_1/1768.mp4"",""group_1/1158.mp4"",""group_1/1169.mp4"",""group_1/1768.mp4"",""group_1/1791.mp4"",""group_1/1292.mp4"",""group_1/0927.mp4"",""group_1/1768.mp4"",""group_1/0059.mp4"",""group_1/1292.mp4"",""group_1/0283.mp4"",""group_1/1768.mp4"",""group_1/1375.mp4"",""group_1/1292.mp4"",""group_1/1169.mp4"",""group_1/1375.mp4"",""group_1/1791.mp4"",""group_1/0283.mp4"",""group_1/0927.mp4"",""group_1/1375.mp4"",""group_1/0059.mp4"",""group_1/0283.mp4"",""group_1/1169.mp4"",""group_1/0059.mp4"",""group_1/1791.mp4"",""group_1/0927.mp4"",""group_1/1169.mp4"",""group_1/1791.mp4"",""group_1/0927.mp4"",""group_1/0059.mp4"",""group_1/0283.mp4"",""group_1/1375.mp4"",""group_1/1292.mp4"",""group_1/1768.mp4"",""group_1/1158.mp4"",""group_1/2138.mp4"",""group_1/1703.mp4"",""group_1/1169.mp4""]",-0.035185157,-0.373148176,1,0,0,image,0.007407464,-0.372222222,1,0,0,image_2,0.007407464,-0.372222222,1,0,0,image,0.007407464,-0.372222222,1,0,0,image,0.015740797,-0.375,1,0,0,image,-0.001851824,-0.002777778,1,0,0,center_square_3,1,-0.001851824,-0.002777778,0,0,0,-1,87.2338,1,1,-0.001851824,-0.002777778,0,0,0,0,0,0,0,1,videos/0001.mp4,1,takadakenta_test0614,2024-06-14_16h03.48.108,demoExp_V2,2021.2.3,Win32,60.24096386,,,,,,,,,,,,,,,,,,,,,,,,,,,,
,,,,,,,,,,,,,,,,,,,,,,,,,,,,,,,,,,,,,0.6,0.025925954,0.098148134,1,0,0,4,90.6951,1,2,0,0,1,0,0,0,1,1,1,1,videos/0002.mp4,2,takadakenta_test0614,2024-06-14_16h03.48.108,demoExp_V2,2021.2.3,Win32,60.24096386,response1disk,center_square,,,,,,,,,,,,,,,,,,,,,,,,,,
,,,,,,,,,,,,,,,,,,,,,,,,,,,,,,,,,,,,,0.5,0.033333333,0.075,1,0,0,4,100.7263,1,3,0.008333333,-0.001851866,1,0,0,0,2,2,2,1,videos/0003.mp4,3,takadakenta_test0614,2024-06-14_16h03.48.108,demoExp_V2,2021.2.3,Win32,60.24096386,response1disk,center_square,,,,,,,,,,,,,,,,,,,,,,,,,,
,,,,,,,,,,,,,,,,,,,,,,,,,,,,,,,,,,,,,1,0.020370399,-0.112037065,1,0,0,1,116.0262,1,4,0.000925954,0.000925912,1,0,0,0,3,3,3,1,videos/0004.mp4,4,takadakenta_test0614,2024-06-14_16h03.48.108,demoExp_V2,2021.2.3,Win32,60.24096386,response3disk,center_square,,,,,,,,,,,,,,,,,,,,,,,,,,
,,,,,,,,,,,,,,,,,,,,,,,,,,,,,,,,,,,,,0.5,0.030555556,-0.109259288,1,0,0,1,128.5251,1,5,-0.003703647,0.004629601,1,0,0,0,4,4,4,1,videos/0005.mp4,5,takadakenta_test0614,2024-06-14_16h03.48.108,demoExp_V2,2021.2.3,Win32,60.24096386,response3disk,center_square,,,,,,,,,,,,,,,,,,,,,,,,,,
,,,,,,,,,,,,,,,,,,,,,,,,,,,,,,,,,,,,,0.9,-0.057407379,-0.011111111,1,0,0,-2,142.807,1,6,-0.008333333,0.002777778,1,0,0,0,5,5,5,1,videos/0006.mp4,6,takadakenta_test0614,2024-06-14_16h03.48.108,demoExp_V2,2021.2.3,Win32,60.24096386,response5disk,center_square,,,,,,,,,,,,,,,,,,,,,,,,,,
,,,,,,,,,,,,,,,,,,,,,,,,,,,,,,,0,-0.004629644,1,0,0,center_square_3,0.6,,,,,,1,156.7151,1,1,,,,,,,,,,,,,takadakenta_test0614,2024-06-14_16h03.48.108,demoExp_V2,2021.2.3,Win32,60.24096386,,,0,-0.375925954,1,0,0,image,0,-0.004629644,0,0,0,group_1/1071.mp4,0,-0.004629644,0,0,0,0,0,0,0,1,,,,
,,,,,,,,,,,,,,,,,,,,,,,,,,,,,,,,,,,,,0.7,,,,,,-2,164.1733,1,2,,,,,,,,,,,,,takadakenta_test0614,2024-06-14_16h03.48.108,demoExp_V2,2021.2.3,Win32,60.24096386,,,,,,,,,-0.137962935,-0.041666667,1,0,0,group_1/1703.mp4,0.002777778,-0.000925954,1,0,0,1,0,1,0,1,response5disk_2,center_square_2,,
,,,,,,,,,,,,,,,,,,,,,,,,,,,,,,,,,,,,,0.6,,,,,,-2,173.6219,1,3,,,,,,,,,,,,,takadakenta_test0614,2024-06-14_16h03.48.108,demoExp_V2,2021.2.3,Win32,60.24096386,,,,,,,,,-0.078703647,-0.051851866,1,0,0,group_1/2138.mp4,-0.005555556,-0.00648151,1,0,0,2,0,2,0,1,response5disk_2,center_square_2,,
,,,,,,,,,,,,,,,,,,,,,,,,,,,,,,,,,,,,,0.7,,,,,,1,178.1718,1,4,,,,,,,,,,,,,takadakenta_test0614,2024-06-14_16h03.48.108,demoExp_V2,2021.2.3,Win32,60.24096386,,,,,,,,,0.020370399,-0.075,1,0,0,group_1/1071.mp4,0.000925954,0.002777778,1,0,0,3,0,3,0,1,response3disk_2,center_square_2,,
,,,,,,,,,,,,,,,,,,,,,,,,,,,,,,,,,,,,,0.6,,,,,,2,186.8788,1,5,,,,,,,,,,,,,takadakenta_test0614,2024-06-14_16h03.48.108,demoExp_V2,2021.2.3,Win32,60.24096386,,,,,,,,,0.098148176,-0.022222222,1,0,0,group_1/1158.mp4,0.003703732,0.000925912,1,0,0,4,0,4,0,1,response3disk_2,center_square_2,,
,,,,,,,,,,,,,,,,,,,,,,,,,,,,,,,,,,,,,0.6,,,,,,-3,194.9373,1,6,,,,,,,,,,,,,takadakenta_test0614,2024-06-14_16h03.48.108,demoExp_V2,2021.2.3,Win32,60.24096386,,,,,,,,,-0.150925869,0.032407379,1,0,0,group_1/1703.mp4,-0.005555556,0.011111111,1,0,0,5,0,5,0,1,response7disk_2,center_square_2,,
,,,,,,,,,,,,,,,,,,,,,,,,,,,,,,,,,,,,,1,,,,,,3,202.3281,1,7,,,,,,,,,,,,,takadakenta_test0614,2024-06-14_16h03.48.108,demoExp_V2,2021.2.3,Win32,60.24096386,,,,,,,,,0.157407464,0.040740712,1,0,0,group_1/1768.mp4,-0.004629601,0.001851824,1,0,0,6,0,6,0,1,response1disk_2,center_square_2,,
,,,,,,,,,,,,,,,,,,,,,,,,,,,,,,,,,,,,,0.7,,,,,,4,213.0061,1,8,,,,,,,,,,,,,takadakenta_test0614,2024-06-14_16h03.48.108,demoExp_V2,2021.2.3,Win32,60.24096386,,,,,,,,,0.093518575,0.137962935,1,0,0,group_1/1292.mp4,-0.002777778,-0.012037065,1,0,0,7,0,7,0,1,response1disk_2,center_square_2,,
,,,,,,,,,,,,,,,,,,,,,,,,,,,,,,,,,,,,,1,,,,,,3,221.6299,1,9,,,,,,,,,,,,,takadakenta_test0614,2024-06-14_16h03.48.108,demoExp_V2,2021.2.3,Win32,60.24096386,,,,,,,,,0.144444444,0.032407379,1,0,0,group_1/1703.mp4,0.005555556,0,1,0,0,8,0,8,0,1,response1disk_2,center_square_2,,
,,,,,,,,,,,,,,,,,,,,,,,,,,,,,,,,,,,,,0.7,,,,,,2,226.319,1,10,,,,,,,,,,,,,takadakenta_test0614,2024-06-14_16h03.48.108,demoExp_V2,2021.2.3,Win32,60.24096386,,,,,,,,,0.048148176,-0.016666667,1,0,0,group_1/1375.mp4,-0.005555556,-0.003703732,1,0,0,9,0,9,0,1,response3disk_2,center_square_2,,
,,,,,,,,,,,,,,,,,,,,,,,,,,,,,,,,,,,,,0.6,,,,,,-3,233.5435,1,11,,,,,,,,,,,,,takadakenta_test0614,2024-06-14_16h03.48.108,demoExp_V2,2021.2.3,Win32,60.24096386,,,,,,,,,-0.073148092,0.01851849,1,0,0,group_1/1071.mp4,-0.012036981,-0.000925954,1,0,0,10,0,10,0,1,response7disk_2,center_square_2,,
,,,,,,,,,,,,,,,,,,,,,,,,,,,,,,,,,,,,,0.6,,,,,,-1,250.9592,1,12,,,,,,,,,,,,,takadakenta_test0614,2024-06-14_16h03.48.108,demoExp_V2,2021.2.3,Win32,60.24096386,,,,,,,,,-0.031481425,-0.100925954,1,0,0,group_1/0283.mp4,0.007407464,0.001851824,1,0,0,11,0,11,0,1,response5disk_2,center_square_2,,
,,,,,,,,,,,,,,,,,,,,,,,,,,,,,,,,,,,,,0.9,,,,,,2,259.4343,1,13,,,,,,,,,,,,,takadakenta_test0614,2024-06-14_16h03.48.108,demoExp_V2,2021.2.3,Win32,60.24096386,,,,,,,,,0.103703732,-0.023148176,1,0,0,group_1/1703.mp4,0.001851908,0.002777778,1,0,0,12,0,12,0,1,response3disk_2,center_square_2,,
,,,,,,,,,,,,,,,,,,,,,,,,,,,,,,,,,,,,,0.5,,,,,,1,265.6568,1,14,,,,,,,,,,,,,takadakenta_test0614,2024-06-14_16h03.48.108,demoExp_V2,2021.2.3,Win32,60.24096386,,,,,,,,,0.015740797,-0.051851866,1,0,0,group_1/0059.mp4,0.002777778,0.000925912,1,0,0,13,0,13,0,1,response3disk_2,center_square_2,,
,,,,,,,,,,,,,,,,,,,,,,,,,,,,,,,,,,,,,0.5,,,,,,1,270.0994,1,15,,,,,,,,,,,,,takadakenta_test0614,2024-06-14_16h03.48.108,demoExp_V2,2021.2.3,Win32,60.24096386,,,,,,,,,0.030555556,-0.064814843,1,0,0,group_1/1071.mp4,0.002777778,-0.002777778,1,0,0,14,0,14,0,1,response3disk_2,center_square_2,,
,,,,,,,,,,,,,,,,,,,,,,,,,,,,,,,,,,,,,1,,,,,,3,277.3195,1,16,,,,,,,,,,,,,takadakenta_test0614,2024-06-14_16h03.48.108,demoExp_V2,2021.2.3,Win32,60.24096386,,,,,,,,,0.135185242,0.077777778,1,0,0,group_1/0927.mp4,0.007407464,0.00370369,1,0,0,15,0,15,0,1,response1disk_2,center_square_2,,
,,,,,,,,,,,,,,,,,,,,,,,,,,,,,,,,,,,,,0.8,,,,,,-3,285.4269,1,17,,,,,,,,,,,,,takadakenta_test0614,2024-06-14_16h03.48.108,demoExp_V2,2021.2.3,Win32,60.24096386,,,,,,,,,-0.094444444,0.012037023,1,0,0,group_1/1703.mp4,-0.013888889,0.00370369,1,0,0,16,0,16,0,1,response7disk_2,center_square_2,,
,,,,,,,,,,,,,,,,,,,,,,,,,,,,,,,,,,,,,1,,,,,,1,296.5153,1,18,,,,,,,,,,,,,takadakenta_test0614,2024-06-14_16h03.48.108,demoExp_V2,2021.2.3,Win32,60.24096386,,,,,,,,,0.017592621,-0.092592621,1,0,0,group_1/1791.mp4,-0.000925869,-0.005555556,1,0,0,17,0,17,0,1,response3disk_2,center_square_2,,
,,,,,,,,,,,,,,,,,,,,,,,,,,,,,,,,,,,,,0.5,,,,,,-3,300.7654,1,19,,,,,,,,,,,,,takadakenta_test0614,2024-06-14_16h03.48.108,demoExp_V2,2021.2.3,Win32,60.24096386,,,,,,,,,-0.069444444,0.037962935,1,0,0,group_1/1071.mp4,-0.003703647,-0.002777778,1,0,0,18,0,18,0,1,response7disk_2,center_square_2,,
,,,,,,,,,,,,,,,,,,,,,,,,,,,,,,,,,,,,,0.9,,,,,,2,306.0319,1,20,,,,,,,,,,,,,takadakenta_test0614,2024-06-14_16h03.48.108,demoExp_V2,2021.2.3,Win32,60.24096386,,,,,,,,,0.058333333,-0.030555556,1,0,0,group_1/1169.mp4,0.009259288,-0.003703732,1,0,0,19,0,19,0,1,response3disk_2,center_square_2,,
,,,,,,,,,,,,,,,,,,,,,,,,,,,,,,,,,,,,,0.7,,,,,,-1,315.2809,1,21,,,,,,,,,,,,,takadakenta_test0614,2024-06-14_16h03.48.108,demoExp_V2,2021.2.3,Win32,60.24096386,,,,,,,,,-0.025925869,-0.075925954,1,0,0,group_1/2138.mp4,0.004629686,0.004629601,1,0,0,20,0,20,0,1,response5disk_2,center_square_2,,
,,,,,,,,,,,,,,,,,,,,,,,,,,,,,,,,,,,,,0.5,,,,,,2,319.414,1,22,,,,,,,,,,,,,takadakenta_test0614,2024-06-14_16h03.48.108,demoExp_V2,2021.2.3,Win32,60.24096386,,,,,,,,,0.104629686,-0.033333333,1,0,0,group_1/1791.mp4,0.005555556,-0.002777778,1,0,0,21,0,21,0,1,response3disk_2,center_square_2,,
,,,,,,,,,,,,,,,,,,,,,,,,,,,,,,,,,,,,,0.7,,,,,,1,330.689,1,23,,,,,,,,,,,,,takadakenta_test0614,2024-06-14_16h03.48.108,demoExp_V2,2021.2.3,Win32,60.24096386,,,,,,,,,0.025925954,-0.094444444,1,0,0,group_1/1158.mp4,-0.001851824,-0.005555556,1,0,0,22,0,22,0,1,response3disk_2,center_square_2,,
,,,,,,,,,,,,,,,,,,,,,,,,,,,,,,,,,,,,,0.8,,,,,,4,338.897,1,24,,,,,,,,,,,,,takadakenta_test0614,2024-06-14_16h03.48.108,demoExp_V2,2021.2.3,Win32,60.24096386,,,,,,,,,0.075,0.134259245,1,0,0,group_1/0927.mp4,-0.000925869,0.012962935,1,0,0,23,0,23,0,1,response1disk_2,center_square_2,,
,,,,,,,,,,,,,,,,,,,,,,,,,,,,,,,,,,,,,0.6,,,,,,2,346.9453,1,25,,,,,,,,,,,,,takadakenta_test0614,2024-06-14_16h03.48.108,demoExp_V2,2021.2.3,Win32,60.24096386,,,,,,,,,0.075,-0.025925954,1,0,0,group_1/2138.mp4,0.007407464,-0.001851866,1,0,0,24,0,24,0,1,response3disk_2,center_square_2,,
,,,,,,,,,,,,,,,,,,,,,,,,,,,,,,,,,,,,,0.8,,,,,,1,351.7452,1,26,,,,,,,,,,,,,takadakenta_test0614,2024-06-14_16h03.48.108,demoExp_V2,2021.2.3,Win32,60.24096386,,,,,,,,,0.026851908,-0.083333333,1,0,0,group_1/0059.mp4,0.007407464,0.002777778,1,0,0,25,0,25,0,1,response3disk_2,center_square_2,,
,,,,,,,,,,,,,,,,,,,,,,,,,,,,,,,,,,,,,0.5,,,,,,2,360.4353,1,27,,,,,,,,,,,,,takadakenta_test0614,2024-06-14_16h03.48.108,demoExp_V2,2021.2.3,Win32,60.24096386,,,,,,,,,0.127777778,-0.014814843,1,0,0,group_1/1158.mp4,-0.004629601,-0.002777778,1,0,0,26,0,26,0,1,response3disk_2,center_square_2,,
,,,,,,,,,,,,,,,,,,,,,,,,,,,,,,,,,,,,,0.6,,,,,,3,377.7701,1,28,,,,,,,,,,,,,takadakenta_test0614,2024-06-14_16h03.48.108,demoExp_V2,2021.2.3,Win32,60.24096386,,,,,,,,,0.069444444,0.036111111,1,0,0,group_1/0283.mp4,0.00648151,0.000925912,1,0,0,27,0,27,0,1,response1disk_2,center_square_2,,
,,,,,,,,,,,,,,,,,,,,,,,,,,,,,,,,,,,,,0.7,,,,,,2,385.9772,1,29,,,,,,,,,,,,,takadakenta_test0614,2024-06-14_16h03.48.108,demoExp_V2,2021.2.3,Win32,60.24096386,,,,,,,,,0.075925954,-0.043518533,1,0,0,group_1/2138.mp4,0.003703732,0,1,0,0,28,0,28,0,1,response3disk_2,center_square_2,,
,,,,,,,,,,,,,,,,,,,,,,,,,,,,,,,,,,,,,0.7,,,,,,-2,393.102,1,30,,,,,,,,,,,,,takadakenta_test0614,2024-06-14_16h03.48.108,demoExp_V2,2021.2.3,Win32,60.24096386,,,,,,,,,-0.109259203,-0.064814843,1,0,0,group_1/1375.mp4,0.000925954,0.001851824,1,0,0,29,0,29,0,1,response5disk_2,center_square_2,,
,,,,,,,,,,,,,,,,,,,,,,,,,,,,,,,,,,,,,0.7,,,,,,-2,401.4932,1,31,,,,,,,,,,,,,takadakenta_test0614,2024-06-14_16h03.48.108,demoExp_V2,2021.2.3,Win32,60.24096386,,,,,,,,,-0.075,-0.008333333,1,0,0,group_1/1158.mp4,-0.010185157,-0.000925954,1,0,0,30,0,30,0,1,response5disk_2,center_square_2,,
,,,,,,,,,,,,,,,,,,,,,,,,,,,,,,,,,,,,,0.5,,,,,,-3,414.8746,1,32,,,,,,,,,,,,,takadakenta_test0614,2024-06-14_16h03.48.108,demoExp_V2,2021.2.3,Win32,60.24096386,,,,,,,,,-0.098148092,0.058333333,1,0,0,group_1/1292.mp4,0,-0.004629644,1,0,0,31,0,31,0,1,response7disk_2,center_square_2,,
,,,,,,,,,,,,,,,,,,,,,,,,,,,,,,,,,,,,,0.9,,,,,,-3,427.8739,1,33,,,,,,,,,,,,,takadakenta_test0614,2024-06-14_16h03.48.108,demoExp_V2,2021.2.3,Win32,60.24096386,,,,,,,,,-0.112962935,0.033333333,1,0,0,group_1/2138.mp4,0.004629686,0.002777778,1,0,0,32,0,32,0,1,response7disk_2,center_square_2,,
,,,,,,,,,,,,,,,,,,,,,,,,,,,,,,,,,,,,,0.5,,,,,,-3,437.0275,1,34,,,,,,,,,,,,,takadakenta_test0614,2024-06-14_16h03.48.108,demoExp_V2,2021.2.3,Win32,60.24096386,,,,,,,,,-0.101851824,0.07870369,1,0,0,group_1/1768.mp4,-0.003703647,-0.008333333,1,0,0,33,0,33,0,1,response7disk_2,center_square_2,,
,,,,,,,,,,,,,,,,,,,,,,,,,,,,,,,,,,,,,1,,,,,,-4,446.0896,1,35,,,,,,,,,,,,,takadakenta_test0614,2024-06-14_16h03.48.108,demoExp_V2,2021.2.3,Win32,60.24096386,,,,,,,,,-0.088888889,0.164814801,1,0,0,group_1/1158.mp4,0.003703732,0,1,0,0,34,0,34,0,1,response7disk_2,center_square_2,,
,,,,,,,,,,,,,,,,,,,,,,,,,,,,,,,,,,,,,0.8,,,,,,2,450.758,1,36,,,,,,,,,,,,,takadakenta_test0614,2024-06-14_16h03.48.108,demoExp_V2,2021.2.3,Win32,60.24096386,,,,,,,,,0.113888889,-0.030555556,1,0,0,group_1/1169.mp4,-0.000925869,0.00370369,1,0,0,35,0,35,0,1,response3disk_2,center_square_2,,
,,,,,,,,,,,,,,,,,,,,,,,,,,,,,,,,,,,,,0.5,,,,,,-3,457.5147,1,37,,,,,,,,,,,,,takadakenta_test0614,2024-06-14_16h03.48.108,demoExp_V2,2021.2.3,Win32,60.24096386,,,,,,,,,-0.101851824,0.030555556,1,0,0,group_1/1768.mp4,-0.010185157,-0.00648151,1,0,0,36,0,36,0,1,response7disk_2,center_square_2,,
,,,,,,,,,,,,,,,,,,,,,,,,,,,,,,,,,,,,,1,,,,,,-1,473.0046,1,38,,,,,,,,,,,,,takadakenta_test0614,2024-06-14_16h03.48.108,demoExp_V2,2021.2.3,Win32,60.24096386,,,,,,,,,-0.022222222,-0.057407422,1,0,0,group_1/1791.mp4,0.002777778,0.000925912,1,0,0,37,0,37,0,1,response5disk_2,center_square_2,,
,,,,,,,,,,,,,,,,,,,,,,,,,,,,,,,,,,,,,0.5,,,,,,1,489.1207,1,39,,,,,,,,,,,,,takadakenta_test0614,2024-06-14_16h03.48.108,demoExp_V2,2021.2.3,Win32,60.24096386,,,,,,,,,0.057407464,-0.124074088,1,0,0,group_1/1292.mp4,0.005555556,0.001851824,1,0,0,38,0,38,0,1,response3disk_2,center_square_2,,
,,,,,,,,,,,,,,,,,,,,,,,,,,,,,,,,,,,,,0.9,,,,,,-3,497.7036,1,40,,,,,,,,,,,,,takadakenta_test0614,2024-06-14_16h03.48.108,demoExp_V2,2021.2.3,Win32,60.24096386,,,,,,,,,-0.062962935,0.033333333,1,0,0,group_1/0927.mp4,-0.005555556,0.000925912,1,0,0,39,0,39,0,1,response7disk_2,center_square_2,,
,,,,,,,,,,,,,,,,,,,,,,,,,,,,,,,,,,,,,0.5,,,,,,-3,504.4529,1,41,,,,,,,,,,,,,takadakenta_test0614,2024-06-14_16h03.48.108,demoExp_V2,2021.2.3,Win32,60.24096386,,,,,,,,,-0.070370314,0.066666667,1,0,0,group_1/1768.mp4,0.002777778,0.011111111,1,0,0,40,0,40,0,1,response7disk_2,center_square_2,,
,,,,,,,,,,,,,,,,,,,,,,,,,,,,,,,,,,,,,0.7,,,,,,-1,509.0527,1,42,,,,,,,,,,,,,takadakenta_test0614,2024-06-14_16h03.48.108,demoExp_V2,2021.2.3,Win32,60.24096386,,,,,,,,,-0.025925869,-0.103703732,1,0,0,group_1/0059.mp4,0.005555556,-0.000925954,1,0,0,41,0,41,0,1,response5disk_2,center_square_2,,
,,,,,,,,,,,,,,,,,,,,,,,,,,,,,,,,,,,,,0.8,,,,,,-2,519.5433,1,43,,,,,,,,,,,,,takadakenta_test0614,2024-06-14_16h03.48.108,demoExp_V2,2021.2.3,Win32,60.24096386,,,,,,,,,-0.099074046,-0.018518533,1,0,0,group_1/1292.mp4,-0.007407379,-0.008333333,1,0,0,42,0,42,0,1,response5disk_2,center_square_2,,
,,,,,,,,,,,,,,,,,,,,,,,,,,,,,,,,,,,,,0.8,,,,,,1,537.6846,1,44,,,,,,,,,,,,,takadakenta_test0614,2024-06-14_16h03.48.108,demoExp_V2,2021.2.3,Win32,60.24096386,,,,,,,,,0.016666667,-0.089814843,1,0,0,group_1/0283.mp4,0.003703732,-0.008333333,1,0,0,43,0,43,0,1,response3disk_2,center_square_2,,
,,,,,,,,,,,,,,,,,,,,,,,,,,,,,,,,,,,,,0.7,,,,,,-3,544.9859,1,45,,,,,,,,,,,,,takadakenta_test0614,2024-06-14_16h03.48.108,demoExp_V2,2021.2.3,Win32,60.24096386,,,,,,,,,-0.125,0.061111111,1,0,0,group_1/1768.mp4,-0.001851824,0.002777778,1,0,0,44,0,44,0,1,response7disk_2,center_square_2,,
,,,,,,,,,,,,,,,,,,,,,,,,,,,,,,,,,,,,,0.8,,,,,,3,549.4743,1,46,,,,,,,,,,,,,takadakenta_test0614,2024-06-14_16h03.48.108,demoExp_V2,2021.2.3,Win32,60.24096386,,,,,,,,,0.091666667,0.029629601,1,0,0,group_1/1375.mp4,-0.002777778,0.005555556,1,0,0,45,0,45,0,1,response1disk_2,center_square_2,,
,,,,,,,,,,,,,,,,,,,,,,,,,,,,,,,,,,,,,0.8,,,,,,2,561.2351,1,47,,,,,,,,,,,,,takadakenta_test0614,2024-06-14_16h03.48.108,demoExp_V2,2021.2.3,Win32,60.24096386,,,,,,,,,0.077777778,-0.020370399,1,0,0,group_1/1292.mp4,0.004629686,-0.000925954,1,0,0,46,0,46,0,1,response3disk_2,center_square_2,,
,,,,,,,,,,,,,,,,,,,,,,,,,,,,,,,,,,,,,0.8,,,,,,-1,566.4162,1,48,,,,,,,,,,,,,takadakenta_test0614,2024-06-14_16h03.48.108,demoExp_V2,2021.2.3,Win32,60.24096386,,,,,,,,,-0.036111111,-0.09629631,1,0,0,group_1/1169.mp4,-0.007407379,-0.00648151,1,0,0,47,0,47,0,1,response5disk_2,center_square_2,,
,,,,,,,,,,,,,,,,,,,,,,,,,,,,,,,,,,,,,0.9,,,,,,-2,572.7489,1,49,,,,,,,,,,,,,takadakenta_test0614,2024-06-14_16h03.48.108,demoExp_V2,2021.2.3,Win32,60.24096386,,,,,,,,,-0.084259203,-0.025925954,1,0,0,group_1/1375.mp4,-0.001851824,0.000925912,1,0,0,48,0,48,0,1,response5disk_2,center_square_2,,
,,,,,,,,,,,,,,,,,,,,,,,,,,,,,,,,,,,,,0.8,,,,,,1,579.57,1,50,,,,,,,,,,,,,takadakenta_test0614,2024-06-14_16h03.48.108,demoExp_V2,2021.2.3,Win32,60.24096386,,,,,,,,,0.032407464,-0.119444444,1,0,0,group_1/1791.mp4,-0.002777778,-0.002777778,1,0,0,49,0,49,0,1,response3disk_2,center_square_2,,
,,,,,,,,,,,,,,,,,,,,,,,,,,,,,,,,,,,,,0.8,,,,,,-3,596.972,1,51,,,,,,,,,,,,,takadakenta_test0614,2024-06-14_16h03.48.108,demoExp_V2,2021.2.3,Win32,60.24096386,,,,,,,,,-0.127777778,0.062037023,1,0,0,group_1/0283.mp4,0.000925954,0,1,0,0,50,0,50,0,1,response7disk_2,center_square_2,,
,,,,,,,,,,,,,,,,,,,,,,,,,,,,,,,,,,,,,0.9,,,,,,3,604.947,1,52,,,,,,,,,,,,,takadakenta_test0614,2024-06-14_16h03.48.108,demoExp_V2,2021.2.3,Win32,60.24096386,,,,,,,,,0.078703732,0.031481467,1,0,0,group_1/0927.mp4,0.007407464,-0.001851866,1,0,0,51,0,51,0,1,response1disk_2,center_square_2,,
,,,,,,,,,,,,,,,,,,,,,,,,,,,,,,,,,,,,,1,,,,,,1,613.6217,1,53,,,,,,,,,,,,,takadakenta_test0614,2024-06-14_16h03.48.108,demoExp_V2,2021.2.3,Win32,60.24096386,,,,,,,,,0.029629686,-0.064814843,1,0,0,group_1/1375.mp4,0.001851908,-0.004629644,1,0,0,52,0,52,0,1,response3disk_2,center_square_2,,
,,,,,,,,,,,,,,,,,,,,,,,,,,,,,,,,,,,,,0.5,,,,,,2,618.4963,1,54,,,,,,,,,,,,,takadakenta_test0614,2024-06-14_16h03.48.108,demoExp_V2,2021.2.3,Win32,60.24096386,,,,,,,,,0.038888889,-0.013888889,1,0,0,group_1/0059.mp4,0.003703732,-0.002777778,1,0,0,53,0,53,0,1,response3disk_2,center_square_2,,
,,,,,,,,,,,,,,,,,,,,,,,,,,,,,,,,,,,,,1,,,,,,2,635.9284,1,55,,,,,,,,,,,,,takadakenta_test0614,2024-06-14_16h03.48.108,demoExp_V2,2021.2.3,Win32,60.24096386,,,,,,,,,0.064814843,-0.012962977,1,0,0,group_1/0283.mp4,-0.002777778,-0.003703732,1,0,0,54,0,54,0,1,response3disk_2,center_square_2,,
,,,,,,,,,,,,,,,,,,,,,,,,,,,,,,,,,,,,,0.7,,,,,,-1,640.4646,1,56,,,,,,,,,,,,,takadakenta_test0614,2024-06-14_16h03.48.108,demoExp_V2,2021.2.3,Win32,60.24096386,,,,,,,,,-0.035185157,-0.101851866,1,0,0,group_1/1169.mp4,-0.004629601,-0.003703732,1,0,0,55,0,55,0,1,response5disk_2,center_square_2,,
,,,,,,,,,,,,,,,,,,,,,,,,,,,,,,,,,,,,,0.7,,,,,,2,645.4948,1,57,,,,,,,,,,,,,takadakenta_test0614,2024-06-14_16h03.48.108,demoExp_V2,2021.2.3,Win32,60.24096386,,,,,,,,,0.144444444,-0.039814843,1,0,0,group_1/0059.mp4,0.007407464,-0.005555556,1,0,0,56,0,56,0,1,response3disk_2,center_square_2,,
,,,,,,,,,,,,,,,,,,,,,,,,,,,,,,,,,,,,,1,,,,,,-2,649.7444,1,58,,,,,,,,,,,,,takadakenta_test0614,2024-06-14_16h03.48.108,demoExp_V2,2021.2.3,Win32,60.24096386,,,,,,,,,-0.096296268,-0.049074088,1,0,0,group_1/1791.mp4,-0.006481425,-0.012962977,1,0,0,57,0,57,0,1,response5disk_2,center_square_2,,
,,,,,,,,,,,,,,,,,,,,,,,,,,,,,,,,,,,,,1,,,,,,-4,656.911,1,59,,,,,,,,,,,,,takadakenta_test0614,2024-06-14_16h03.48.108,demoExp_V2,2021.2.3,Win32,60.24096386,,,,,,,,,-0.108333333,0.139814801,1,0,0,group_1/0927.mp4,-0.002777778,-0.002777778,1,0,0,58,0,58,0,1,response7disk_2,center_square_2,,
,,,,,,,,,,,,,,,,,,,,,,,,,,,,,,,,,,,,,0.9,,,,,,-1,666.1276,1,60,,,,,,,,,,,,,takadakenta_test0614,2024-06-14_16h03.48.108,demoExp_V2,2021.2.3,Win32,60.24096386,,,,,,,,,-0.024074046,-0.101851866,1,0,0,group_1/1169.mp4,0.003703732,-0.009259288,1,0,0,59,0,59,0,1,response5disk_2,center_square_2,,
,,,,,,,,,,,,,,,,,,,,,,,,,,,,,,,,,,,,,0.8,,,,,,2,671.2777,1,61,,,,,,,,,,,,,takadakenta_test0614,2024-06-14_16h03.48.108,demoExp_V2,2021.2.3,Win32,60.24096386,,,,,,,,,0.084259288,-0.062037065,1,0,0,group_1/1791.mp4,0.002777778,0.002777778,1,0,0,60,0,60,0,1,response3disk_2,center_square_2,,
,,,,,,,,,,,,,,,,,,,,,,,,,,,,,,,,,,,,,0.7,,,,,,-3,682.776,1,62,,,,,,,,,,,,,takadakenta_test0614,2024-06-14_16h03.48.108,demoExp_V2,2021.2.3,Win32,60.24096386,,,,,,,,,-0.062036981,0.034259245,1,0,0,group_1/0927.mp4,-0.000925869,0.004629601,1,0,0,61,0,61,0,1,response7disk_2,center_square_2,,
,,,,,,,,,,,,,,,,,,,,,,,,,,,,,,,,,,,,,0.7,,,,,,-1,687.4946,1,63,,,,,,,,,,,,,takadakenta_test0614,2024-06-14_16h03.48.108,demoExp_V2,2021.2.3,Win32,60.24096386,,,,,,,,,-0.028703647,-0.116666667,1,0,0,group_1/0059.mp4,-0.010185157,0,1,0,0,62,0,62,0,1,response5disk_2,center_square_2,,
,,,,,,,,,,,,,,,,,,,,,,,,,,,,,,,,,,,,,0.7,,,,,,2,704.5577,1,64,,,,,,,,,,,,,takadakenta_test0614,2024-06-14_16h03.48.108,demoExp_V2,2021.2.3,Win32,60.24096386,,,,,,,,,0.092592621,-0.028703732,1,0,0,group_1/0283.mp4,0,-0.005555556,1,0,0,63,0,63,0,1,response3disk_2,center_square_2,,
,,,,,,,,,,,,,,,,,,,,,,,,,,,,,,,,,,,,,0.9,,,,,,-1,711.9247,1,65,,,,,,,,,,,,,takadakenta_test0614,2024-06-14_16h03.48.108,demoExp_V2,2021.2.3,Win32,60.24096386,,,,,,,,,-0.05,-0.062037065,1,0,0,group_1/1375.mp4,0,-0.008333333,1,0,0,64,0,64,0,1,response5disk_2,center_square_2,,
,,,,,,,,,,,,,,,,,,,,,,,,,,,,,,,,,,,,,1,,,,,,3,722.5737,1,66,,,,,,,,,,,,,takadakenta_test0614,2024-06-14_16h03.48.108,demoExp_V2,2021.2.3,Win32,60.24096386,,,,,,,,,0.074074131,0.042592578,1,0,0,group_1/1292.mp4,0.004629686,0.009259245,1,0,0,65,0,65,0,1,response1disk_2,center_square_2,,
,,,,,,,,,,,,,,,,,,,,,,,,,,,,,,,,,,,,,0.9,,,,,,4,729.7401,1,67,,,,,,,,,,,,,takadakenta_test0614,2024-06-14_16h03.48.108,demoExp_V2,2021.2.3,Win32,60.24096386,,,,,,,,,0.057407464,0.119444444,1,0,0,group_1/1768.mp4,-0.006481425,0,1,0,0,66,0,66,0,1,response1disk_2,center_square_2,,
,,,,,,,,,,,,,,,,,,,,,,,,,,,,,,,,,,,,,0.6,,,,,,-4,737.694,1,68,,,,,,,,,,,,,takadakenta_test0614,2024-06-14_16h03.48.108,demoExp_V2,2021.2.3,Win32,60.24096386,,,,,,,,,-0.05,0.104629601,1,0,0,group_1/1158.mp4,0.008333333,-0.007407422,1,0,0,67,0,67,0,1,response7disk_2,center_square_2,,
,,,,,,,,,,,,,,,,,,,,,,,,,,,,,,,,,,,,,0.8,,,,,,2,750.189,1,69,,,,,,,,,,,,,takadakenta_test0614,2024-06-14_16h03.48.108,demoExp_V2,2021.2.3,Win32,60.24096386,,,,,,,,,0.097222222,-0.02129631,1,0,0,group_1/2138.mp4,0.002777778,0.008333333,1,0,0,68,0,68,0,1,response3disk_2,center_square_2,,
,,,,,,,,,,,,,,,,,,,,,,,,,,,,,,,,,,,,,0.9,,,,,,1,758.6549,1,70,,,,,,,,,,,,,takadakenta_test0614,2024-06-14_16h03.48.108,demoExp_V2,2021.2.3,Win32,60.24096386,,,,,,,,,0.041666667,-0.168518533,1,0,0,group_1/1703.mp4,-0.000925869,-0.004629644,1,0,0,69,0,69,0,1,response3disk_2,center_square_2,,
,,,,,,,,,,,,,,,,,,,,,,,,,,,,,,,,,,,,,0.7,,,,,,1,763.2215,1,71,,,,,,,,,,,,,takadakenta_test0614,2024-06-14_16h03.48.108,demoExp_V2,2021.2.3,Win32,60.24096386,,,,,,,,,0.019444444,-0.029629644,1,0,0,group_1/1169.mp4,0,-0.001851866,1,0,0,70,0,70,0,1,response3disk_2,center_square_2,,
,,,,,,,,,,,,,,,,,,,,,,,,,,,,,,,,,,,,,,,,,,,,,,,,,,,,,,,,,,,takadakenta_test0614,2024-06-14_16h03.48.108,demoExp_V2,2021.2.3,Win32,60.24096386,,,,,,,,,,,,,,,,,,,,,,,,,,,space,3.3469
